"","image","trialnum","condition","l_block_trial_key_resp.rt","l_block_trial_key_resp.keys","v_block_trial_key_resp.rt","v_block_trial_key_resp.keys","ltarget","Run","PartID","vtarget","expName"
"1","M.png",145,"S",NA,"None",NA,"","f_not_false",2,"f005",3,"visual"
"2","K.png",146,"S",NA,"None",NA,"","f_not_false",2,"f005",3,"visual"
"3","B.png",147,"S",NA,"None",NA,"","f_not_false",2,"f005",3,"visual"
"4","D.png",148,"S",NA,"None",NA,"","f_not_false",2,"f005",3,"visual"
"5","G.png",149,"S",NA,"None",NA,"","f_not_false",2,"f005",3,"visual"
"6","C.png",150,"S",NA,"None",NA,"","f_not_false",2,"f005",3,"visual"
"7","M.png",151,"S",NA,"None",NA,"","f_not_false",2,"f005",3,"visual"
"8","K.png",152,"S",NA,"None",NA,"","f_not_false",2,"f005",3,"visual"
"9","B.png",153,"S",NA,"None",NA,"","f_not_false",2,"f005",3,"visual"
"10","E.png",154,"S",NA,"None",NA,"","f_not_false",2,"f005",3,"visual"
"11","L.png",155,"S",NA,"None",NA,"","f_not_false",2,"f005",3,"visual"
"12","H.png",156,"S",NA,"None",NA,"","f_not_false",2,"f005",3,"visual"
"13","A.png",157,"S",NA,"None",NA,"","f_not_false",2,"f005",3,"visual"
"14","J.png",158,"S",NA,"None",NA,"","f_not_false",2,"f005",3,"visual"
"15","F.png",159,"S",0.367058848962,"3",NA,"","f_not_false",2,"f005",3,"visual"
"16","M.png",160,"S",NA,"None",NA,"","f_not_false",2,"f005",3,"visual"
"17","K.png",161,"S",NA,"None",NA,"","f_not_false",2,"f005",3,"visual"
"18","B.png",162,"S",NA,"None",NA,"","f_not_false",2,"f005",3,"visual"
"19","E.png",163,"S",NA,"None",NA,"","f_not_false",2,"f005",3,"visual"
"20","L.png",164,"S",NA,"None",NA,"","f_not_false",2,"f005",3,"visual"
"21","H.png",165,"S",NA,"None",NA,"","f_not_false",2,"f005",3,"visual"
"22","A.png",166,"S",NA,"None",NA,"","f_not_false",2,"f005",3,"visual"
"23","J.png",167,"S",NA,"None",NA,"","f_not_false",2,"f005",3,"visual"
"24","F.png",168,"S",0.358672009315,"3",NA,"","f_not_false",2,"f005",3,"visual"
"25","blank.png",0,"B",NA,"",NA,"","f_not_false",2,"f005",3,"visual"
"26","blank.png",0,"B",NA,"",NA,"","f_not_false",2,"f005",3,"visual"
"27","blank.png",0,"B",NA,"",NA,"","f_not_false",2,"f005",3,"visual"
"28","blank.png",0,"B",NA,"",NA,"","f_not_false",2,"f005",3,"visual"
"29","blank.png",0,"B",NA,"",NA,"","f_not_false",2,"f005",3,"visual"
"30","blank.png",0,"B",NA,"",NA,"","f_not_false",2,"f005",3,"visual"
"31","blank.png",0,"B",NA,"",NA,"","f_not_false",2,"f005",3,"visual"
"32","blank.png",0,"B",NA,"",NA,"","f_not_false",2,"f005",3,"visual"
"33","blank.png",0,"B",NA,"",NA,"","f_not_false",2,"f005",3,"visual"
"34","blank.png",0,"B",NA,"",NA,"","f_not_false",2,"f005",3,"visual"
"35","blank.png",0,"B",NA,"",NA,"","f_not_false",2,"f005",3,"visual"
"36","blank.png",0,"B",NA,"",NA,"","f_not_false",2,"f005",3,"visual"
"37","D.png",169,"S",NA,"None",NA,"","f_not_false",2,"f005",3,"visual"
"38","G.png",170,"S",NA,"None",NA,"","f_not_false",2,"f005",3,"visual"
"39","C.png",171,"S",NA,"None",NA,"","f_not_false",2,"f005",3,"visual"
"40","A.png",172,"S",NA,"None",NA,"","f_not_false",2,"f005",3,"visual"
"41","J.png",173,"S",NA,"None",NA,"","f_not_false",2,"f005",3,"visual"
"42","F.png",174,"S",0.32522989501,"3",NA,"","f_not_false",2,"f005",3,"visual"
"43","M.png",175,"S",NA,"None",NA,"","f_not_false",2,"f005",3,"visual"
"44","K.png",176,"S",NA,"None",NA,"","f_not_false",2,"f005",3,"visual"
"45","B.png",177,"S",NA,"None",NA,"","f_not_false",2,"f005",3,"visual"
"46","D.png",178,"S",NA,"None",NA,"","f_not_false",2,"f005",3,"visual"
"47","G.png",179,"S",NA,"None",NA,"","f_not_false",2,"f005",3,"visual"
"48","C.png",180,"S",NA,"None",NA,"","f_not_false",2,"f005",3,"visual"
"49","E.png",181,"S",NA,"None",NA,"","f_not_false",2,"f005",3,"visual"
"50","L.png",182,"S",NA,"None",NA,"","f_not_false",2,"f005",3,"visual"
"51","H.png",183,"S",NA,"None",NA,"","f_not_false",2,"f005",3,"visual"
"52","D.png",184,"S",NA,"None",NA,"","f_not_false",2,"f005",3,"visual"
"53","G.png",185,"S",NA,"None",NA,"","f_not_false",2,"f005",3,"visual"
"54","C.png",186,"S",NA,"None",NA,"","f_not_false",2,"f005",3,"visual"
"55","A.png",187,"S",NA,"None",NA,"","f_not_false",2,"f005",3,"visual"
"56","J.png",188,"S",NA,"None",NA,"","f_not_false",2,"f005",3,"visual"
"57","F.png",189,"S",0.308583077742,"3",NA,"","f_not_false",2,"f005",3,"visual"
"58","E.png",190,"S",NA,"None",NA,"","f_not_false",2,"f005",3,"visual"
"59","L.png",191,"S",NA,"None",NA,"","f_not_false",2,"f005",3,"visual"
"60","H.png",192,"S",NA,"None",NA,"","f_not_false",2,"f005",3,"visual"
"61","Alien1.bmp",145,"R",NA,"",NA,"None","f_not_false",2,"f005",3,"visual"
"62","Alien6.bmp",146,"R",NA,"",NA,"None","f_not_false",2,"f005",3,"visual"
"63","Alien6.bmp",147,"R",NA,"",NA,"None","f_not_false",2,"f005",3,"visual"
"64","Alien2.bmp",148,"R",NA,"",NA,"None","f_not_false",2,"f005",3,"visual"
"65","Alien3.bmp",149,"R",NA,"",0.45037229493,"3","f_not_false",2,"f005",3,"visual"
"66","Alien11.bmp",150,"R",NA,"",NA,"None","f_not_false",2,"f005",3,"visual"
"67","Alien7.bmp",151,"R",NA,"",NA,"None","f_not_false",2,"f005",3,"visual"
"68","Alien5.bmp",152,"R",NA,"",NA,"None","f_not_false",2,"f005",3,"visual"
"69","Alien5.bmp",153,"R",NA,"",NA,"None","f_not_false",2,"f005",3,"visual"
"70","Alien5.bmp",154,"R",NA,"",NA,"None","f_not_false",2,"f005",3,"visual"
"71","Alien8.bmp",155,"R",NA,"",NA,"None","f_not_false",2,"f005",3,"visual"
"72","Alien7.bmp",156,"R",NA,"",NA,"None","f_not_false",2,"f005",3,"visual"
"73","Alien3.bmp",157,"R",NA,"",0.533730967494,"3","f_not_false",2,"f005",3,"visual"
"74","Alien6.bmp",158,"R",NA,"",NA,"None","f_not_false",2,"f005",3,"visual"
"75","Alien4.bmp",159,"R",NA,"",NA,"None","f_not_false",2,"f005",3,"visual"
"76","Alien10.bmp",160,"R",NA,"",NA,"None","f_not_false",2,"f005",3,"visual"
"77","Alien1.bmp",161,"R",NA,"",NA,"None","f_not_false",2,"f005",3,"visual"
"78","Alien8.bmp",162,"R",NA,"",NA,"None","f_not_false",2,"f005",3,"visual"
"79","Alien9.bmp",163,"R",NA,"",NA,"None","f_not_false",2,"f005",3,"visual"
"80","Alien9.bmp",164,"R",NA,"",NA,"None","f_not_false",2,"f005",3,"visual"
"81","Alien2.bmp",165,"R",NA,"",NA,"None","f_not_false",2,"f005",3,"visual"
"82","Alien4.bmp",166,"R",NA,"",NA,"None","f_not_false",2,"f005",3,"visual"
"83","Alien12.bmp",167,"R",NA,"",NA,"None","f_not_false",2,"f005",3,"visual"
"84","Alien4.bmp",168,"R",NA,"",NA,"None","f_not_false",2,"f005",3,"visual"
"85","Alien12.bmp",169,"R",NA,"",NA,"None","f_not_false",2,"f005",3,"visual"
"86","Alien1.bmp",170,"R",NA,"",NA,"None","f_not_false",2,"f005",3,"visual"
"87","Alien7.bmp",171,"R",NA,"",NA,"None","f_not_false",2,"f005",3,"visual"
"88","Alien5.bmp",172,"R",NA,"",NA,"None","f_not_false",2,"f005",3,"visual"
"89","Alien12.bmp",173,"R",NA,"",NA,"None","f_not_false",2,"f005",3,"visual"
"90","Alien4.bmp",174,"R",NA,"",NA,"None","f_not_false",2,"f005",3,"visual"
"91","Alien8.bmp",175,"R",NA,"",NA,"None","f_not_false",2,"f005",3,"visual"
"92","Alien6.bmp",176,"R",NA,"",0.425322424737,"3","f_not_false",2,"f005",3,"visual"
"93","Alien11.bmp",177,"R",NA,"",NA,"None","f_not_false",2,"f005",3,"visual"
"94","Alien7.bmp",178,"R",NA,"",NA,"None","f_not_false",2,"f005",3,"visual"
"95","Alien1.bmp",179,"R",NA,"",NA,"None","f_not_false",2,"f005",3,"visual"
"96","Alien11.bmp",180,"R",NA,"",NA,"None","f_not_false",2,"f005",3,"visual"
"97","Alien9.bmp",181,"R",NA,"",NA,"None","f_not_false",2,"f005",3,"visual"
"98","Alien10.bmp",182,"R",NA,"",NA,"None","f_not_false",2,"f005",3,"visual"
"99","Alien2.bmp",183,"R",NA,"",NA,"None","f_not_false",2,"f005",3,"visual"
"100","Alien2.bmp",184,"R",NA,"",NA,"None","f_not_false",2,"f005",3,"visual"
"101","Alien8.bmp",185,"R",NA,"",NA,"None","f_not_false",2,"f005",3,"visual"
"102","Alien11.bmp",186,"R",NA,"",NA,"None","f_not_false",2,"f005",3,"visual"
"103","Alien3.bmp",187,"R",NA,"",0.516955581494,"3","f_not_false",2,"f005",3,"visual"
"104","Alien3.bmp",188,"R",NA,"",0.642080914695,"3","f_not_false",2,"f005",3,"visual"
"105","Alien9.bmp",189,"R",NA,"",NA,"None","f_not_false",2,"f005",3,"visual"
"106","Alien10.bmp",190,"R",NA,"",NA,"None","f_not_false",2,"f005",3,"visual"
"107","Alien10.bmp",191,"R",NA,"",NA,"None","f_not_false",2,"f005",3,"visual"
"108","Alien12.bmp",192,"R",NA,"",NA,"None","f_not_false",2,"f005",3,"visual"
"109","blank.png",0,"B",NA,"",NA,"None","f_not_false",2,"f005",3,"visual"
"110","blank.png",0,"B",NA,"",NA,"None","f_not_false",2,"f005",3,"visual"
"111","blank.png",0,"B",NA,"",NA,"None","f_not_false",2,"f005",3,"visual"
"112","blank.png",0,"B",NA,"",NA,"None","f_not_false",2,"f005",3,"visual"
"113","blank.png",0,"B",NA,"",NA,"None","f_not_false",2,"f005",3,"visual"
"114","blank.png",0,"B",NA,"",NA,"None","f_not_false",2,"f005",3,"visual"
"115","blank.png",0,"B",NA,"",NA,"None","f_not_false",2,"f005",3,"visual"
"116","blank.png",0,"B",NA,"",NA,"None","f_not_false",2,"f005",3,"visual"
"117","blank.png",0,"B",NA,"",NA,"None","f_not_false",2,"f005",3,"visual"
"118","blank.png",0,"B",NA,"",NA,"None","f_not_false",2,"f005",3,"visual"
"119","blank.png",0,"B",NA,"",NA,"None","f_not_false",2,"f005",3,"visual"
"120","blank.png",0,"B",NA,"",NA,"None","f_not_false",2,"f005",3,"visual"
"121","M.png",193,"S",NA,"None",NA,"","f_not_false",2,"f005",3,"visual"
"122","K.png",194,"S",NA,"None",NA,"","f_not_false",2,"f005",3,"visual"
"123","B.png",195,"S",NA,"None",NA,"","f_not_false",2,"f005",3,"visual"
"124","E.png",196,"S",NA,"None",NA,"","f_not_false",2,"f005",3,"visual"
"125","L.png",197,"S",NA,"None",NA,"","f_not_false",2,"f005",3,"visual"
"126","H.png",198,"S",NA,"None",NA,"","f_not_false",2,"f005",3,"visual"
"127","A.png",199,"S",NA,"None",NA,"","f_not_false",2,"f005",3,"visual"
"128","J.png",200,"S",NA,"None",NA,"","f_not_false",2,"f005",3,"visual"
"129","F.png",201,"S",0.375364906446,"3",NA,"","f_not_false",2,"f005",3,"visual"
"130","D.png",202,"S",NA,"None",NA,"","f_not_false",2,"f005",3,"visual"
"131","G.png",203,"S",NA,"None",NA,"","f_not_false",2,"f005",3,"visual"
"132","C.png",204,"S",NA,"None",NA,"","f_not_false",2,"f005",3,"visual"
"133","E.png",205,"S",NA,"None",NA,"","f_not_false",2,"f005",3,"visual"
"134","L.png",206,"S",NA,"None",NA,"","f_not_false",2,"f005",3,"visual"
"135","H.png",207,"S",NA,"None",NA,"","f_not_false",2,"f005",3,"visual"
"136","M.png",208,"S",NA,"None",NA,"","f_not_false",2,"f005",3,"visual"
"137","K.png",209,"S",NA,"None",NA,"","f_not_false",2,"f005",3,"visual"
"138","B.png",210,"S",NA,"None",NA,"","f_not_false",2,"f005",3,"visual"
"139","A.png",211,"S",NA,"None",NA,"","f_not_false",2,"f005",3,"visual"
"140","J.png",212,"S",NA,"None",NA,"","f_not_false",2,"f005",3,"visual"
"141","F.png",213,"S",0.383742643869,"3",NA,"","f_not_false",2,"f005",3,"visual"
"142","D.png",214,"S",NA,"None",NA,"","f_not_false",2,"f005",3,"visual"
"143","G.png",215,"S",NA,"None",NA,"","f_not_false",2,"f005",3,"visual"
"144","C.png",216,"S",NA,"None",NA,"","f_not_false",2,"f005",3,"visual"
"145","M.png",217,"S",NA,"None",NA,"","f_not_false",2,"f005",3,"visual"
"146","K.png",218,"S",NA,"None",NA,"","f_not_false",2,"f005",3,"visual"
"147","B.png",219,"S",NA,"None",NA,"","f_not_false",2,"f005",3,"visual"
"148","D.png",220,"S",NA,"None",NA,"","f_not_false",2,"f005",3,"visual"
"149","G.png",221,"S",NA,"None",NA,"","f_not_false",2,"f005",3,"visual"
"150","C.png",222,"S",NA,"None",NA,"","f_not_false",2,"f005",3,"visual"
"151","E.png",223,"S",NA,"None",NA,"","f_not_false",2,"f005",3,"visual"
"152","L.png",224,"S",NA,"None",NA,"","f_not_false",2,"f005",3,"visual"
"153","H.png",225,"S",NA,"None",NA,"","f_not_false",2,"f005",3,"visual"
"154","A.png",226,"S",NA,"None",NA,"","f_not_false",2,"f005",3,"visual"
"155","J.png",227,"S",NA,"None",NA,"","f_not_false",2,"f005",3,"visual"
"156","F.png",228,"S",0.348875463707,"3",NA,"","f_not_false",2,"f005",3,"visual"
"157","E.png",229,"S",NA,"None",NA,"","f_not_false",2,"f005",3,"visual"
"158","L.png",230,"S",NA,"None",NA,"","f_not_false",2,"f005",3,"visual"
"159","H.png",231,"S",NA,"None",NA,"","f_not_false",2,"f005",3,"visual"
"160","D.png",232,"S",NA,"None",NA,"","f_not_false",2,"f005",3,"visual"
"161","G.png",233,"S",NA,"None",NA,"","f_not_false",2,"f005",3,"visual"
"162","C.png",234,"S",NA,"None",NA,"","f_not_false",2,"f005",3,"visual"
"163","M.png",235,"S",NA,"None",NA,"","f_not_false",2,"f005",3,"visual"
"164","K.png",236,"S",NA,"None",NA,"","f_not_false",2,"f005",3,"visual"
"165","B.png",237,"S",NA,"None",NA,"","f_not_false",2,"f005",3,"visual"
"166","A.png",238,"S",NA,"None",NA,"","f_not_false",2,"f005",3,"visual"
"167","J.png",239,"S",NA,"None",NA,"","f_not_false",2,"f005",3,"visual"
"168","F.png",240,"S",0.30868832214,"3",NA,"","f_not_false",2,"f005",3,"visual"
"169","blank.png",0,"B",NA,"",NA,"","f_not_false",2,"f005",3,"visual"
"170","blank.png",0,"B",NA,"",NA,"","f_not_false",2,"f005",3,"visual"
"171","blank.png",0,"B",NA,"",NA,"","f_not_false",2,"f005",3,"visual"
"172","blank.png",0,"B",NA,"",NA,"","f_not_false",2,"f005",3,"visual"
"173","blank.png",0,"B",NA,"",NA,"","f_not_false",2,"f005",3,"visual"
"174","blank.png",0,"B",NA,"",NA,"","f_not_false",2,"f005",3,"visual"
"175","blank.png",0,"B",NA,"",NA,"","f_not_false",2,"f005",3,"visual"
"176","blank.png",0,"B",NA,"",NA,"","f_not_false",2,"f005",3,"visual"
"177","blank.png",0,"B",NA,"",NA,"","f_not_false",2,"f005",3,"visual"
"178","blank.png",0,"B",NA,"",NA,"","f_not_false",2,"f005",3,"visual"
"179","blank.png",0,"B",NA,"",NA,"","f_not_false",2,"f005",3,"visual"
"180","blank.png",0,"B",NA,"",NA,"","f_not_false",2,"f005",3,"visual"
"181","Alien12.bmp",193,"R",NA,"",NA,"None","f_not_false",2,"f005",3,"visual"
"182","Alien1.bmp",194,"R",NA,"",NA,"None","f_not_false",2,"f005",3,"visual"
"183","Alien1.bmp",195,"R",NA,"",NA,"None","f_not_false",2,"f005",3,"visual"
"184","Alien2.bmp",196,"R",NA,"",NA,"None","f_not_false",2,"f005",3,"visual"
"185","Alien7.bmp",197,"R",NA,"",NA,"None","f_not_false",2,"f005",3,"visual"
"186","Alien8.bmp",198,"R",NA,"",NA,"None","f_not_false",2,"f005",3,"visual"
"187","Alien3.bmp",199,"R",NA,"",0.467016267707,"3","f_not_false",2,"f005",3,"visual"
"188","Alien5.bmp",200,"R",NA,"",NA,"None","f_not_false",2,"f005",3,"visual"
"189","Alien2.bmp",201,"R",NA,"",NA,"None","f_not_false",2,"f005",3,"visual"
"190","Alien4.bmp",202,"R",NA,"",NA,"None","f_not_false",2,"f005",3,"visual"
"191","Alien9.bmp",203,"R",NA,"",NA,"None","f_not_false",2,"f005",3,"visual"
"192","Alien6.bmp",204,"R",NA,"",NA,"None","f_not_false",2,"f005",3,"visual"
"193","Alien3.bmp",205,"R",NA,"",0.567063001858,"3","f_not_false",2,"f005",3,"visual"
"194","Alien11.bmp",206,"R",NA,"",NA,"None","f_not_false",2,"f005",3,"visual"
"195","Alien10.bmp",207,"R",NA,"",NA,"None","f_not_false",2,"f005",3,"visual"
"196","Alien4.bmp",208,"R",NA,"",NA,"None","f_not_false",2,"f005",3,"visual"
"197","Alien8.bmp",209,"R",NA,"",NA,"None","f_not_false",2,"f005",3,"visual"
"198","Alien5.bmp",210,"R",NA,"",NA,"None","f_not_false",2,"f005",3,"visual"
"199","Alien9.bmp",211,"R",NA,"",NA,"None","f_not_false",2,"f005",3,"visual"
"200","Alien11.bmp",212,"R",NA,"",NA,"None","f_not_false",2,"f005",3,"visual"
"201","Alien7.bmp",213,"R",NA,"",NA,"None","f_not_false",2,"f005",3,"visual"
"202","Alien10.bmp",214,"R",NA,"",NA,"None","f_not_false",2,"f005",3,"visual"
"203","Alien6.bmp",215,"R",NA,"",NA,"None","f_not_false",2,"f005",3,"visual"
"204","Alien12.bmp",216,"R",NA,"",NA,"None","f_not_false",2,"f005",3,"visual"
"205","blank.png",0,"B",NA,"",NA,"None","f_not_false",2,"f005",3,"visual"
"206","blank.png",0,"B",NA,"",NA,"None","f_not_false",2,"f005",3,"visual"
"207","blank.png",0,"B",NA,"",NA,"None","f_not_false",2,"f005",3,"visual"
"208","blank.png",0,"B",NA,"",NA,"None","f_not_false",2,"f005",3,"visual"
"209","blank.png",0,"B",NA,"",NA,"None","f_not_false",2,"f005",3,"visual"
"210","blank.png",0,"B",NA,"",NA,"None","f_not_false",2,"f005",3,"visual"
"211","blank.png",0,"B",NA,"",NA,"None","f_not_false",2,"f005",3,"visual"
"212","blank.png",0,"B",NA,"",NA,"None","f_not_false",2,"f005",3,"visual"
"213","blank.png",0,"B",NA,"",NA,"None","f_not_false",2,"f005",3,"visual"
"214","blank.png",0,"B",NA,"",NA,"None","f_not_false",2,"f005",3,"visual"
"215","blank.png",0,"B",NA,"",NA,"None","f_not_false",2,"f005",3,"visual"
"216","blank.png",0,"B",NA,"",NA,"None","f_not_false",2,"f005",3,"visual"
"217","Alien7.bmp",217,"R",NA,"",NA,"None","f_not_false",2,"f005",3,"visual"
"218","Alien5.bmp",218,"R",NA,"",NA,"None","f_not_false",2,"f005",3,"visual"
"219","Alien2.bmp",219,"R",NA,"",NA,"None","f_not_false",2,"f005",3,"visual"
"220","Alien4.bmp",220,"R",NA,"",NA,"None","f_not_false",2,"f005",3,"visual"
"221","Alien5.bmp",221,"R",NA,"",NA,"None","f_not_false",2,"f005",3,"visual"
"222","Alien11.bmp",222,"R",NA,"",NA,"None","f_not_false",2,"f005",3,"visual"
"223","Alien11.bmp",223,"R",NA,"",NA,"None","f_not_false",2,"f005",3,"visual"
"224","Alien12.bmp",224,"R",NA,"",NA,"None","f_not_false",2,"f005",3,"visual"
"225","Alien9.bmp",225,"R",NA,"",NA,"None","f_not_false",2,"f005",3,"visual"
"226","Alien4.bmp",226,"R",NA,"",NA,"None","f_not_false",2,"f005",3,"visual"
"227","Alien8.bmp",227,"R",NA,"",NA,"None","f_not_false",2,"f005",3,"visual"
"228","Alien9.bmp",228,"R",NA,"",NA,"None","f_not_false",2,"f005",3,"visual"
"229","Alien6.bmp",229,"R",NA,"",NA,"None","f_not_false",2,"f005",3,"visual"
"230","Alien10.bmp",230,"R",NA,"",NA,"None","f_not_false",2,"f005",3,"visual"
"231","Alien3.bmp",231,"R",NA,"",0.375424924248,"3","f_not_false",2,"f005",3,"visual"
"232","Alien12.bmp",232,"R",NA,"",NA,"None","f_not_false",2,"f005",3,"visual"
"233","Alien6.bmp",233,"R",NA,"",NA,"None","f_not_false",2,"f005",3,"visual"
"234","Alien3.bmp",234,"R",NA,"",0.550475349068,"3","f_not_false",2,"f005",3,"visual"
"235","Alien8.bmp",235,"R",NA,"",NA,"None","f_not_false",2,"f005",3,"visual"
"236","Alien2.bmp",236,"R",NA,"",NA,"None","f_not_false",2,"f005",3,"visual"
"237","Alien7.bmp",237,"R",NA,"",NA,"None","f_not_false",2,"f005",3,"visual"
"238","Alien1.bmp",238,"R",NA,"",NA,"None","f_not_false",2,"f005",3,"visual"
"239","Alien1.bmp",239,"R",NA,"",NA,"None","f_not_false",2,"f005",3,"visual"
"240","Alien10.bmp",240,"R",NA,"",NA,"None","f_not_false",2,"f005",3,"visual"
"241","E.png",241,"S",NA,"None",NA,"","f_not_false",2,"f005",3,"visual"
"242","L.png",242,"S",NA,"None",NA,"","f_not_false",2,"f005",3,"visual"
"243","H.png",243,"S",NA,"None",NA,"","f_not_false",2,"f005",3,"visual"
"244","M.png",244,"S",NA,"None",NA,"","f_not_false",2,"f005",3,"visual"
"245","K.png",245,"S",NA,"None",NA,"","f_not_false",2,"f005",3,"visual"
"246","B.png",246,"S",NA,"None",NA,"","f_not_false",2,"f005",3,"visual"
"247","D.png",247,"S",NA,"None",NA,"","f_not_false",2,"f005",3,"visual"
"248","G.png",248,"S",NA,"None",NA,"","f_not_false",2,"f005",3,"visual"
"249","C.png",249,"S",NA,"None",NA,"","f_not_false",2,"f005",3,"visual"
"250","E.png",250,"S",NA,"None",NA,"","f_not_false",2,"f005",3,"visual"
"251","L.png",251,"S",NA,"None",NA,"","f_not_false",2,"f005",3,"visual"
"252","H.png",252,"S",NA,"None",NA,"","f_not_false",2,"f005",3,"visual"
"253","M.png",253,"S",NA,"None",NA,"","f_not_false",2,"f005",3,"visual"
"254","K.png",254,"S",NA,"None",NA,"","f_not_false",2,"f005",3,"visual"
"255","B.png",255,"S",NA,"None",NA,"","f_not_false",2,"f005",3,"visual"
"256","D.png",256,"S",NA,"None",NA,"","f_not_false",2,"f005",3,"visual"
"257","G.png",257,"S",NA,"None",NA,"","f_not_false",2,"f005",3,"visual"
"258","C.png",258,"S",NA,"None",NA,"","f_not_false",2,"f005",3,"visual"
"259","A.png",259,"S",NA,"None",NA,"","f_not_false",2,"f005",3,"visual"
"260","J.png",260,"S",NA,"None",NA,"","f_not_false",2,"f005",3,"visual"
"261","F.png",261,"S",0.275367381168,"3",NA,"","f_not_false",2,"f005",3,"visual"
"262","E.png",262,"S",NA,"None",NA,"","f_not_false",2,"f005",3,"visual"
"263","L.png",263,"S",NA,"None",NA,"","f_not_false",2,"f005",3,"visual"
"264","H.png",264,"S",NA,"None",NA,"","f_not_false",2,"f005",3,"visual"
"265","blank.png",0,"B",NA,"",NA,"","f_not_false",2,"f005",3,"visual"
"266","blank.png",0,"B",NA,"",NA,"","f_not_false",2,"f005",3,"visual"
"267","blank.png",0,"B",NA,"",NA,"","f_not_false",2,"f005",3,"visual"
"268","blank.png",0,"B",NA,"",NA,"","f_not_false",2,"f005",3,"visual"
"269","blank.png",0,"B",NA,"",NA,"","f_not_false",2,"f005",3,"visual"
"270","blank.png",0,"B",NA,"",NA,"","f_not_false",2,"f005",3,"visual"
"271","blank.png",0,"B",NA,"",NA,"","f_not_false",2,"f005",3,"visual"
"272","blank.png",0,"B",NA,"",NA,"","f_not_false",2,"f005",3,"visual"
"273","blank.png",0,"B",NA,"",NA,"","f_not_false",2,"f005",3,"visual"
"274","blank.png",0,"B",NA,"",NA,"","f_not_false",2,"f005",3,"visual"
"275","blank.png",0,"B",NA,"",NA,"","f_not_false",2,"f005",3,"visual"
"276","blank.png",0,"B",NA,"",NA,"","f_not_false",2,"f005",3,"visual"
"277","A.png",265,"S",NA,"None",NA,"","f_not_false",2,"f005",3,"visual"
"278","J.png",266,"S",NA,"None",NA,"","f_not_false",2,"f005",3,"visual"
"279","F.png",267,"S",0.350440191745,"3",NA,"","f_not_false",2,"f005",3,"visual"
"280","D.png",268,"S",NA,"None",NA,"","f_not_false",2,"f005",3,"visual"
"281","G.png",269,"S",NA,"None",NA,"","f_not_false",2,"f005",3,"visual"
"282","C.png",270,"S",NA,"None",NA,"","f_not_false",2,"f005",3,"visual"
"283","M.png",271,"S",NA,"None",NA,"","f_not_false",2,"f005",3,"visual"
"284","K.png",272,"S",NA,"None",NA,"","f_not_false",2,"f005",3,"visual"
"285","B.png",273,"S",NA,"None",NA,"","f_not_false",2,"f005",3,"visual"
"286","A.png",274,"S",NA,"None",NA,"","f_not_false",2,"f005",3,"visual"
"287","J.png",275,"S",NA,"None",NA,"","f_not_false",2,"f005",3,"visual"
"288","F.png",276,"S",0.241948591254,"3",NA,"","f_not_false",2,"f005",3,"visual"
"289","D.png",277,"S",NA,"None",NA,"","f_not_false",2,"f005",3,"visual"
"290","G.png",278,"S",NA,"None",NA,"","f_not_false",2,"f005",3,"visual"
"291","C.png",279,"S",NA,"None",NA,"","f_not_false",2,"f005",3,"visual"
"292","E.png",280,"S",NA,"None",NA,"","f_not_false",2,"f005",3,"visual"
"293","L.png",281,"S",NA,"None",NA,"","f_not_false",2,"f005",3,"visual"
"294","H.png",282,"S",NA,"None",NA,"","f_not_false",2,"f005",3,"visual"
"295","M.png",283,"S",NA,"None",NA,"","f_not_false",2,"f005",3,"visual"
"296","K.png",284,"S",NA,"None",NA,"","f_not_false",2,"f005",3,"visual"
"297","B.png",285,"S",NA,"None",NA,"","f_not_false",2,"f005",3,"visual"
"298","A.png",286,"S",NA,"None",NA,"","f_not_false",2,"f005",3,"visual"
"299","J.png",287,"S",NA,"None",NA,"","f_not_false",2,"f005",3,"visual"
"300","F.png",288,"S",0.242018848949,"3",NA,"","f_not_false",2,"f005",3,"visual"
"301","Alien10.bmp",241,"R",NA,"",NA,"None","f_not_false",2,"f005",3,"visual"
"302","Alien8.bmp",242,"R",NA,"",NA,"None","f_not_false",2,"f005",3,"visual"
"303","Alien9.bmp",243,"R",NA,"",NA,"None","f_not_false",2,"f005",3,"visual"
"304","Alien8.bmp",244,"R",NA,"",NA,"None","f_not_false",2,"f005",3,"visual"
"305","Alien4.bmp",245,"R",NA,"",NA,"None","f_not_false",2,"f005",3,"visual"
"306","Alien7.bmp",246,"R",NA,"",NA,"None","f_not_false",2,"f005",3,"visual"
"307","Alien5.bmp",247,"R",NA,"",NA,"None","f_not_false",2,"f005",3,"visual"
"308","Alien4.bmp",248,"R",NA,"",NA,"None","f_not_false",2,"f005",3,"visual"
"309","Alien8.bmp",249,"R",NA,"",NA,"None","f_not_false",2,"f005",3,"visual"
"310","Alien2.bmp",250,"R",NA,"",NA,"None","f_not_false",2,"f005",3,"visual"
"311","Alien12.bmp",251,"R",NA,"",NA,"None","f_not_false",2,"f005",3,"visual"
"312","Alien12.bmp",252,"R",NA,"",NA,"None","f_not_false",2,"f005",3,"visual"
"313","Alien6.bmp",253,"R",NA,"",NA,"None","f_not_false",2,"f005",3,"visual"
"314","Alien7.bmp",254,"R",NA,"",NA,"None","f_not_false",2,"f005",3,"visual"
"315","Alien9.bmp",255,"R",NA,"",NA,"None","f_not_false",2,"f005",3,"visual"
"316","Alien10.bmp",256,"R",NA,"",NA,"None","f_not_false",2,"f005",3,"visual"
"317","Alien3.bmp",257,"R",NA,"",0.400274830114,"3","f_not_false",2,"f005",3,"visual"
"318","Alien11.bmp",258,"R",NA,"",NA,"None","f_not_false",2,"f005",3,"visual"
"319","Alien9.bmp",259,"R",NA,"",NA,"None","f_not_false",2,"f005",3,"visual"
"320","Alien6.bmp",260,"R",NA,"",NA,"None","f_not_false",2,"f005",3,"visual"
"321","Alien7.bmp",261,"R",NA,"",NA,"None","f_not_false",2,"f005",3,"visual"
"322","Alien1.bmp",262,"R",NA,"",NA,"None","f_not_false",2,"f005",3,"visual"
"323","Alien11.bmp",263,"R",NA,"",NA,"None","f_not_false",2,"f005",3,"visual"
"324","Alien5.bmp",264,"R",NA,"",NA,"None","f_not_false",2,"f005",3,"visual"
"325","Alien11.bmp",265,"R",NA,"",NA,"None","f_not_false",2,"f005",3,"visual"
"326","Alien6.bmp",266,"R",NA,"",NA,"None","f_not_false",2,"f005",3,"visual"
"327","Alien10.bmp",267,"R",NA,"",NA,"None","f_not_false",2,"f005",3,"visual"
"328","Alien4.bmp",268,"R",NA,"",NA,"None","f_not_false",2,"f005",3,"visual"
"329","Alien11.bmp",269,"R",NA,"",NA,"None","f_not_false",2,"f005",3,"visual"
"330","Alien6.bmp",270,"R",NA,"",NA,"None","f_not_false",2,"f005",3,"visual"
"331","Alien2.bmp",271,"R",NA,"",NA,"None","f_not_false",2,"f005",3,"visual"
"332","Alien12.bmp",272,"R",NA,"",NA,"None","f_not_false",2,"f005",3,"visual"
"333","Alien12.bmp",273,"R",NA,"",NA,"None","f_not_false",2,"f005",3,"visual"
"334","Alien4.bmp",274,"R",NA,"",NA,"None","f_not_false",2,"f005",3,"visual"
"335","Alien3.bmp",275,"R",NA,"",0.442016175191,"3","f_not_false",2,"f005",3,"visual"
"336","Alien9.bmp",276,"R",NA,"",NA,"None","f_not_false",2,"f005",3,"visual"
"337","Alien2.bmp",277,"R",NA,"",NA,"None","f_not_false",2,"f005",3,"visual"
"338","Alien8.bmp",278,"R",NA,"",NA,"None","f_not_false",2,"f005",3,"visual"
"339","Alien5.bmp",279,"R",NA,"",NA,"None","f_not_false",2,"f005",3,"visual"
"340","Alien4.bmp",280,"R",NA,"",NA,"None","f_not_false",2,"f005",3,"visual"
"341","Alien3.bmp",281,"R",NA,"",0.458654743503,"3","f_not_false",2,"f005",3,"visual"
"342","Alien1.bmp",282,"R",NA,"",NA,"None","f_not_false",2,"f005",3,"visual"
"343","Alien1.bmp",283,"R",NA,"",NA,"None","f_not_false",2,"f005",3,"visual"
"344","Alien7.bmp",284,"R",NA,"",NA,"None","f_not_false",2,"f005",3,"visual"
"345","Alien6.bmp",285,"R",NA,"",NA,"None","f_not_false",2,"f005",3,"visual"
"346","Alien5.bmp",286,"R",NA,"",NA,"None","f_not_false",2,"f005",3,"visual"
"347","Alien10.bmp",287,"R",NA,"",NA,"None","f_not_false",2,"f005",3,"visual"
"348","Alien5.bmp",288,"R",NA,"",NA,"None","f_not_false",2,"f005",3,"visual"
"349","",NA,"",NA,"",NA,"","f_not_false",2,"f005",3,"visual"
"350","",NA,"",NA,"",NA,"","f_not_false",2,"f005",3,"visual"
"351","",NA,"",NA,"",NA,"","f_not_false",2,"f005",3,"visual"
"352","",NA,"",NA,"",NA,"","f_not_false",2,"f005",3,"visual"
"353","",NA,"",NA,"",NA,"","f_not_false",2,"f005",3,"visual"
"354","",NA,"",NA,"",NA,"","f_not_false",2,"f005",3,"visual"
"355","",NA,"",NA,"",NA,"","f_not_false",2,"f005",3,"visual"
"356","",NA,"",NA,"",NA,"","f_not_false",2,"f005",3,"visual"
"357","",NA,"",NA,"",NA,"","f_not_false",2,"f005",3,"visual"
"358","",NA,"",NA,"",NA,"","f_not_false",2,"f005",3,"visual"
"359","",NA,"",NA,"",NA,"","f_not_false",2,"f005",3,"visual"
"360","",NA,"",NA,"",NA,"","f_not_false",2,"f005",3,"visual"
"361","",NA,"",NA,"",NA,"","f_not_false",2,"f005",3,"visual"
"362","",NA,"",NA,"",NA,"","f_not_false",2,"f005",3,"visual"
"363","",NA,"",NA,"",NA,"","f_not_false",2,"f005",3,"visual"
"364","",NA,"",NA,"",NA,"","f_not_false",2,"f005",3,"visual"
