"","image","trialnum","condition","l_block_trial_key_resp.rt","l_block_trial_key_resp.keys","v_block_trial_key_resp.rt","v_block_trial_key_resp.keys","ltarget","Run","PartID","vtarget","expName"
"1","blank.png",0,"B",0.375338737504,"None",NA,"","H",4,"f008",6,"visual"
"2","blank.png",0,"B",NA,"",NA,"","H",4,"f008",6,"visual"
"3","blank.png",0,"B",NA,"",NA,"","H",4,"f008",6,"visual"
"4","blank.png",0,"B",NA,"",NA,"","H",4,"f008",6,"visual"
"5","blank.png",0,"B",NA,"",NA,"","H",4,"f008",6,"visual"
"6","blank.png",0,"B",NA,"",NA,"","H",4,"f008",6,"visual"
"7","blank.png",0,"B",NA,"",NA,"","H",4,"f008",6,"visual"
"8","blank.png",0,"B",NA,"",NA,"","H",4,"f008",6,"visual"
"9","blank.png",0,"B",NA,"",NA,"","H",4,"f008",6,"visual"
"10","blank.png",0,"B",NA,"",NA,"","H",4,"f008",6,"visual"
"11","blank.png",0,"B",NA,"",NA,"","H",4,"f008",6,"visual"
"12","blank.png",0,"B",NA,"",NA,"","H",4,"f008",6,"visual"
"13","blank.png",0,"B",0.358675707132,"None",NA,"","H",4,"f008",6,"visual"
"14","blank.png",0,"B",NA,"",NA,"","H",4,"f008",6,"visual"
"15","blank.png",0,"B",NA,"",NA,"","H",4,"f008",6,"visual"
"16","blank.png",0,"B",NA,"",NA,"","H",4,"f008",6,"visual"
"17","blank.png",0,"B",NA,"",NA,"","H",4,"f008",6,"visual"
"18","blank.png",0,"B",NA,"",NA,"","H",4,"f008",6,"visual"
"19","blank.png",0,"B",NA,"",NA,"","H",4,"f008",6,"visual"
"20","blank.png",0,"B",NA,"",NA,"","H",4,"f008",6,"visual"
"21","blank.png",0,"B",NA,"",NA,"","H",4,"f008",6,"visual"
"22","blank.png",0,"B",NA,"",NA,"","H",4,"f008",6,"visual"
"23","blank.png",0,"B",NA,"",NA,"","H",4,"f008",6,"visual"
"24","blank.png",0,"B",NA,"",NA,"","H",4,"f008",6,"visual"
"25","Alien4.bmp",193,"S",NA,"",NA,"None","H",4,"f008",6,"visual"
"26","Alien5.bmp",194,"S",NA,"",NA,"None","H",4,"f008",6,"visual"
"27","Alien6.bmp",195,"S",NA,"",0.358588667121,"3","H",4,"f008",6,"visual"
"28","Alien7.bmp",196,"S",NA,"",NA,"None","H",4,"f008",6,"visual"
"29","Alien8.bmp",197,"S",NA,"",NA,"None","H",4,"f008",6,"visual"
"30","Alien9.bmp",198,"S",NA,"",NA,"None","H",4,"f008",6,"visual"
"31","Alien1.bmp",199,"S",NA,"",NA,"None","H",4,"f008",6,"visual"
"32","Alien2.bmp",200,"S",NA,"",NA,"None","H",4,"f008",6,"visual"
"33","Alien3.bmp",201,"S",NA,"",NA,"None","H",4,"f008",6,"visual"
"34","Alien10.bmp",202,"S",NA,"",NA,"None","H",4,"f008",6,"visual"
"35","Alien11.bmp",203,"S",NA,"",NA,"None","H",4,"f008",6,"visual"
"36","Alien12.bmp",204,"S",NA,"",NA,"None","H",4,"f008",6,"visual"
"37","Alien7.bmp",205,"S",NA,"",NA,"None","H",4,"f008",6,"visual"
"38","Alien8.bmp",206,"S",NA,"",NA,"None","H",4,"f008",6,"visual"
"39","Alien9.bmp",207,"S",NA,"",NA,"None","H",4,"f008",6,"visual"
"40","Alien4.bmp",208,"S",NA,"",NA,"None","H",4,"f008",6,"visual"
"41","Alien5.bmp",209,"S",NA,"",NA,"None","H",4,"f008",6,"visual"
"42","Alien6.bmp",210,"S",NA,"",0.458591312519,"3","H",4,"f008",6,"visual"
"43","Alien1.bmp",211,"S",NA,"",NA,"None","H",4,"f008",6,"visual"
"44","Alien2.bmp",212,"S",NA,"",NA,"None","H",4,"f008",6,"visual"
"45","Alien3.bmp",213,"S",NA,"",NA,"None","H",4,"f008",6,"visual"
"46","Alien10.bmp",214,"S",NA,"",NA,"None","H",4,"f008",6,"visual"
"47","Alien11.bmp",215,"S",NA,"",NA,"None","H",4,"f008",6,"visual"
"48","Alien12.bmp",216,"S",NA,"",NA,"None","H",4,"f008",6,"visual"
"49","Alien4.bmp",217,"S",NA,"",NA,"None","H",4,"f008",6,"visual"
"50","Alien5.bmp",218,"S",NA,"",NA,"None","H",4,"f008",6,"visual"
"51","Alien6.bmp",219,"S",NA,"",0.441983464058,"3","H",4,"f008",6,"visual"
"52","Alien10.bmp",220,"S",NA,"",NA,"None","H",4,"f008",6,"visual"
"53","Alien11.bmp",221,"S",NA,"",NA,"None","H",4,"f008",6,"visual"
"54","Alien12.bmp",222,"S",NA,"",NA,"None","H",4,"f008",6,"visual"
"55","Alien7.bmp",223,"S",NA,"",NA,"None","H",4,"f008",6,"visual"
"56","Alien8.bmp",224,"S",NA,"",NA,"None","H",4,"f008",6,"visual"
"57","Alien9.bmp",225,"S",NA,"",NA,"None","H",4,"f008",6,"visual"
"58","Alien1.bmp",226,"S",NA,"",NA,"None","H",4,"f008",6,"visual"
"59","Alien2.bmp",227,"S",NA,"",NA,"None","H",4,"f008",6,"visual"
"60","Alien3.bmp",228,"S",NA,"",NA,"None","H",4,"f008",6,"visual"
"61","Alien7.bmp",229,"S",NA,"",NA,"None","H",4,"f008",6,"visual"
"62","Alien8.bmp",230,"S",NA,"",NA,"None","H",4,"f008",6,"visual"
"63","Alien9.bmp",231,"S",NA,"",NA,"None","H",4,"f008",6,"visual"
"64","Alien10.bmp",232,"S",NA,"",NA,"None","H",4,"f008",6,"visual"
"65","Alien11.bmp",233,"S",NA,"",NA,"None","H",4,"f008",6,"visual"
"66","Alien12.bmp",234,"S",NA,"",NA,"None","H",4,"f008",6,"visual"
"67","Alien4.bmp",235,"S",NA,"",NA,"None","H",4,"f008",6,"visual"
"68","Alien5.bmp",236,"S",NA,"",NA,"None","H",4,"f008",6,"visual"
"69","Alien6.bmp",237,"S",NA,"",0.400360732223,"3","H",4,"f008",6,"visual"
"70","Alien1.bmp",238,"S",NA,"",NA,"None","H",4,"f008",6,"visual"
"71","Alien2.bmp",239,"S",NA,"",NA,"None","H",4,"f008",6,"visual"
"72","Alien3.bmp",240,"S",NA,"",NA,"None","H",4,"f008",6,"visual"
"73","blank.png",0,"B",NA,"",NA,"None","H",4,"f008",6,"visual"
"74","blank.png",0,"B",NA,"",NA,"None","H",4,"f008",6,"visual"
"75","blank.png",0,"B",NA,"",NA,"None","H",4,"f008",6,"visual"
"76","blank.png",0,"B",NA,"",NA,"None","H",4,"f008",6,"visual"
"77","blank.png",0,"B",NA,"",NA,"None","H",4,"f008",6,"visual"
"78","blank.png",0,"B",NA,"",NA,"None","H",4,"f008",6,"visual"
"79","blank.png",0,"B",NA,"",NA,"None","H",4,"f008",6,"visual"
"80","blank.png",0,"B",NA,"",NA,"None","H",4,"f008",6,"visual"
"81","blank.png",0,"B",NA,"",NA,"None","H",4,"f008",6,"visual"
"82","blank.png",0,"B",NA,"",NA,"None","H",4,"f008",6,"visual"
"83","blank.png",0,"B",NA,"",NA,"None","H",4,"f008",6,"visual"
"84","blank.png",0,"B",NA,"",NA,"None","H",4,"f008",6,"visual"
"85","blank.png",0,"B",0.400341105647,"None",NA,"","H",4,"f008",6,"visual"
"86","blank.png",0,"B",NA,"",NA,"","H",4,"f008",6,"visual"
"87","blank.png",0,"B",NA,"",NA,"","H",4,"f008",6,"visual"
"88","blank.png",0,"B",NA,"",NA,"","H",4,"f008",6,"visual"
"89","blank.png",0,"B",NA,"",NA,"","H",4,"f008",6,"visual"
"90","blank.png",0,"B",NA,"",NA,"","H",4,"f008",6,"visual"
"91","blank.png",0,"B",NA,"",NA,"","H",4,"f008",6,"visual"
"92","blank.png",0,"B",NA,"",NA,"","H",4,"f008",6,"visual"
"93","blank.png",0,"B",NA,"",NA,"","H",4,"f008",6,"visual"
"94","blank.png",0,"B",NA,"",NA,"","H",4,"f008",6,"visual"
"95","blank.png",0,"B",NA,"",NA,"","H",4,"f008",6,"visual"
"96","blank.png",0,"B",NA,"",NA,"","H",4,"f008",6,"visual"
"97","Alien7.bmp",241,"S",NA,"",NA,"None","H",4,"f008",6,"visual"
"98","Alien8.bmp",242,"S",NA,"",NA,"None","H",4,"f008",6,"visual"
"99","Alien9.bmp",243,"S",NA,"",NA,"None","H",4,"f008",6,"visual"
"100","Alien4.bmp",244,"S",NA,"",NA,"None","H",4,"f008",6,"visual"
"101","Alien5.bmp",245,"S",NA,"",NA,"None","H",4,"f008",6,"visual"
"102","Alien6.bmp",246,"S",NA,"",0.416923353914,"3","H",4,"f008",6,"visual"
"103","Alien10.bmp",247,"S",NA,"",NA,"None","H",4,"f008",6,"visual"
"104","Alien11.bmp",248,"S",NA,"",NA,"None","H",4,"f008",6,"visual"
"105","Alien12.bmp",249,"S",NA,"",NA,"None","H",4,"f008",6,"visual"
"106","Alien7.bmp",250,"S",NA,"",NA,"None","H",4,"f008",6,"visual"
"107","Alien8.bmp",251,"S",NA,"",NA,"None","H",4,"f008",6,"visual"
"108","Alien9.bmp",252,"S",NA,"",NA,"None","H",4,"f008",6,"visual"
"109","Alien4.bmp",253,"S",NA,"",NA,"None","H",4,"f008",6,"visual"
"110","Alien5.bmp",254,"S",NA,"",NA,"None","H",4,"f008",6,"visual"
"111","Alien6.bmp",255,"S",NA,"",0.492072680034,"3","H",4,"f008",6,"visual"
"112","Alien10.bmp",256,"S",NA,"",NA,"None","H",4,"f008",6,"visual"
"113","Alien11.bmp",257,"S",NA,"",NA,"None","H",4,"f008",6,"visual"
"114","Alien12.bmp",258,"S",NA,"",NA,"None","H",4,"f008",6,"visual"
"115","Alien1.bmp",259,"S",NA,"",NA,"None","H",4,"f008",6,"visual"
"116","Alien2.bmp",260,"S",NA,"",NA,"None","H",4,"f008",6,"visual"
"117","Alien3.bmp",261,"S",NA,"",NA,"None","H",4,"f008",6,"visual"
"118","Alien7.bmp",262,"S",NA,"",NA,"None","H",4,"f008",6,"visual"
"119","Alien8.bmp",263,"S",NA,"",NA,"None","H",4,"f008",6,"visual"
"120","Alien9.bmp",264,"S",NA,"",NA,"None","H",4,"f008",6,"visual"
"121","Alien1.bmp",265,"S",NA,"",NA,"None","H",4,"f008",6,"visual"
"122","Alien2.bmp",266,"S",NA,"",NA,"None","H",4,"f008",6,"visual"
"123","Alien3.bmp",267,"S",NA,"",NA,"None","H",4,"f008",6,"visual"
"124","Alien10.bmp",268,"S",NA,"",NA,"None","H",4,"f008",6,"visual"
"125","Alien11.bmp",269,"S",NA,"",NA,"None","H",4,"f008",6,"visual"
"126","Alien12.bmp",270,"S",NA,"",NA,"None","H",4,"f008",6,"visual"
"127","Alien4.bmp",271,"S",NA,"",NA,"None","H",4,"f008",6,"visual"
"128","Alien5.bmp",272,"S",NA,"",NA,"None","H",4,"f008",6,"visual"
"129","Alien6.bmp",273,"S",NA,"",0.333636361291,"3","H",4,"f008",6,"visual"
"130","Alien1.bmp",274,"S",NA,"",NA,"None","H",4,"f008",6,"visual"
"131","Alien2.bmp",275,"S",NA,"",NA,"None","H",4,"f008",6,"visual"
"132","Alien3.bmp",276,"S",NA,"",NA,"None","H",4,"f008",6,"visual"
"133","Alien10.bmp",277,"S",NA,"",NA,"None","H",4,"f008",6,"visual"
"134","Alien11.bmp",278,"S",NA,"",NA,"None","H",4,"f008",6,"visual"
"135","Alien12.bmp",279,"S",NA,"",NA,"None","H",4,"f008",6,"visual"
"136","Alien7.bmp",280,"S",NA,"",NA,"None","H",4,"f008",6,"visual"
"137","Alien8.bmp",281,"S",NA,"",NA,"None","H",4,"f008",6,"visual"
"138","Alien9.bmp",282,"S",NA,"",NA,"None","H",4,"f008",6,"visual"
"139","Alien4.bmp",283,"S",NA,"",NA,"None","H",4,"f008",6,"visual"
"140","Alien5.bmp",284,"S",NA,"",NA,"None","H",4,"f008",6,"visual"
"141","Alien6.bmp",285,"S",NA,"",0.358701022575,"3","H",4,"f008",6,"visual"
"142","Alien1.bmp",286,"S",NA,"",NA,"None","H",4,"f008",6,"visual"
"143","Alien2.bmp",287,"S",NA,"",NA,"None","H",4,"f008",6,"visual"
"144","Alien3.bmp",288,"S",NA,"",NA,"None","H",4,"f008",6,"visual"
"145","blank.png",0,"B",NA,"",NA,"None","H",4,"f008",6,"visual"
"146","blank.png",0,"B",NA,"",NA,"None","H",4,"f008",6,"visual"
"147","blank.png",0,"B",NA,"",NA,"None","H",4,"f008",6,"visual"
"148","blank.png",0,"B",NA,"",NA,"None","H",4,"f008",6,"visual"
"149","blank.png",0,"B",NA,"",NA,"None","H",4,"f008",6,"visual"
"150","blank.png",0,"B",NA,"",NA,"None","H",4,"f008",6,"visual"
"151","blank.png",0,"B",NA,"",NA,"None","H",4,"f008",6,"visual"
"152","blank.png",0,"B",NA,"",NA,"None","H",4,"f008",6,"visual"
"153","blank.png",0,"B",NA,"",NA,"None","H",4,"f008",6,"visual"
"154","blank.png",0,"B",NA,"",NA,"None","H",4,"f008",6,"visual"
"155","blank.png",0,"B",NA,"",NA,"None","H",4,"f008",6,"visual"
"156","blank.png",0,"B",NA,"",NA,"None","H",4,"f008",6,"visual"
"157","Alien4.bmp",145,"S",NA,"",NA,"None","H",4,"f008",6,"visual"
"158","Alien5.bmp",146,"S",NA,"",NA,"None","H",4,"f008",6,"visual"
"159","Alien6.bmp",147,"S",NA,"",0.391934923711,"3","H",4,"f008",6,"visual"
"160","Alien10.bmp",148,"S",NA,"",NA,"None","H",4,"f008",6,"visual"
"161","Alien11.bmp",149,"S",NA,"",NA,"None","H",4,"f008",6,"visual"
"162","Alien12.bmp",150,"S",NA,"",NA,"None","H",4,"f008",6,"visual"
"163","Alien4.bmp",151,"S",NA,"",NA,"None","H",4,"f008",6,"visual"
"164","Alien5.bmp",152,"S",NA,"",NA,"None","H",4,"f008",6,"visual"
"165","Alien6.bmp",153,"S",NA,"",0.441942788544,"3","H",4,"f008",6,"visual"
"166","Alien7.bmp",154,"S",NA,"",NA,"None","H",4,"f008",6,"visual"
"167","Alien8.bmp",155,"S",NA,"",NA,"None","H",4,"f008",6,"visual"
"168","Alien9.bmp",156,"S",NA,"",NA,"None","H",4,"f008",6,"visual"
"169","Alien1.bmp",157,"S",NA,"",NA,"None","H",4,"f008",6,"visual"
"170","Alien2.bmp",158,"S",NA,"",NA,"None","H",4,"f008",6,"visual"
"171","Alien3.bmp",159,"S",NA,"",NA,"None","H",4,"f008",6,"visual"
"172","Alien4.bmp",160,"S",NA,"",NA,"None","H",4,"f008",6,"visual"
"173","Alien5.bmp",161,"S",NA,"",NA,"None","H",4,"f008",6,"visual"
"174","Alien6.bmp",162,"S",NA,"",0.350337507436,"3","H",4,"f008",6,"visual"
"175","Alien7.bmp",163,"S",NA,"",NA,"None","H",4,"f008",6,"visual"
"176","Alien8.bmp",164,"S",NA,"",NA,"None","H",4,"f008",6,"visual"
"177","Alien9.bmp",165,"S",NA,"",NA,"None","H",4,"f008",6,"visual"
"178","Alien1.bmp",166,"S",NA,"",NA,"None","H",4,"f008",6,"visual"
"179","Alien2.bmp",167,"S",NA,"",NA,"None","H",4,"f008",6,"visual"
"180","Alien3.bmp",168,"S",NA,"",NA,"None","H",4,"f008",6,"visual"
"181","Alien10.bmp",169,"S",NA,"",NA,"None","H",4,"f008",6,"visual"
"182","Alien11.bmp",170,"S",NA,"",NA,"None","H",4,"f008",6,"visual"
"183","Alien12.bmp",171,"S",NA,"",NA,"None","H",4,"f008",6,"visual"
"184","Alien1.bmp",172,"S",NA,"",NA,"None","H",4,"f008",6,"visual"
"185","Alien2.bmp",173,"S",NA,"",NA,"None","H",4,"f008",6,"visual"
"186","Alien3.bmp",174,"S",NA,"",NA,"None","H",4,"f008",6,"visual"
"187","Alien4.bmp",175,"S",NA,"",NA,"None","H",4,"f008",6,"visual"
"188","Alien5.bmp",176,"S",NA,"",NA,"None","H",4,"f008",6,"visual"
"189","Alien6.bmp",177,"S",NA,"",0.508658910636,"3","H",4,"f008",6,"visual"
"190","Alien10.bmp",178,"S",NA,"",NA,"None","H",4,"f008",6,"visual"
"191","Alien11.bmp",179,"S",NA,"",NA,"None","H",4,"f008",6,"visual"
"192","Alien12.bmp",180,"S",NA,"",NA,"None","H",4,"f008",6,"visual"
"193","Alien7.bmp",181,"S",NA,"",NA,"None","H",4,"f008",6,"visual"
"194","Alien8.bmp",182,"S",NA,"",NA,"None","H",4,"f008",6,"visual"
"195","Alien9.bmp",183,"S",NA,"",NA,"None","H",4,"f008",6,"visual"
"196","Alien10.bmp",184,"S",NA,"",NA,"None","H",4,"f008",6,"visual"
"197","Alien11.bmp",185,"S",NA,"",NA,"None","H",4,"f008",6,"visual"
"198","Alien12.bmp",186,"S",NA,"",NA,"None","H",4,"f008",6,"visual"
"199","Alien1.bmp",187,"S",NA,"",NA,"None","H",4,"f008",6,"visual"
"200","Alien2.bmp",188,"S",NA,"",NA,"None","H",4,"f008",6,"visual"
"201","Alien3.bmp",189,"S",NA,"",NA,"None","H",4,"f008",6,"visual"
"202","Alien7.bmp",190,"S",NA,"",NA,"None","H",4,"f008",6,"visual"
"203","Alien8.bmp",191,"S",NA,"",NA,"None","H",4,"f008",6,"visual"
"204","Alien9.bmp",192,"S",NA,"",NA,"None","H",4,"f008",6,"visual"
"205","blank.png",0,"B",NA,"",NA,"None","H",4,"f008",6,"visual"
"206","blank.png",0,"B",NA,"",NA,"None","H",4,"f008",6,"visual"
"207","blank.png",0,"B",NA,"",NA,"None","H",4,"f008",6,"visual"
"208","blank.png",0,"B",NA,"",NA,"None","H",4,"f008",6,"visual"
"209","blank.png",0,"B",NA,"",NA,"None","H",4,"f008",6,"visual"
"210","blank.png",0,"B",NA,"",NA,"None","H",4,"f008",6,"visual"
"211","blank.png",0,"B",NA,"",NA,"None","H",4,"f008",6,"visual"
"212","blank.png",0,"B",NA,"",NA,"None","H",4,"f008",6,"visual"
"213","blank.png",0,"B",NA,"",NA,"None","H",4,"f008",6,"visual"
"214","blank.png",0,"B",NA,"",NA,"None","H",4,"f008",6,"visual"
"215","blank.png",0,"B",NA,"",NA,"None","H",4,"f008",6,"visual"
"216","blank.png",0,"B",NA,"",NA,"None","H",4,"f008",6,"visual"
"217","",NA,"",NA,"",NA,"","H",4,"f008",6,"visual"
"218","",NA,"",NA,"",NA,"","H",4,"f008",6,"visual"
"219","",NA,"",NA,"",NA,"","H",4,"f008",6,"visual"
"220","",NA,"",NA,"",NA,"","H",4,"f008",6,"visual"
"221","",NA,"",NA,"",NA,"","H",4,"f008",6,"visual"
"222","",NA,"",NA,"",NA,"","H",4,"f008",6,"visual"
"223","",NA,"",NA,"",NA,"","H",4,"f008",6,"visual"
"224","",NA,"",NA,"",NA,"","H",4,"f008",6,"visual"
"225","",NA,"",NA,"",NA,"","H",4,"f008",6,"visual"
"226","",NA,"",NA,"",NA,"","H",4,"f008",6,"visual"
"227","",NA,"",NA,"",NA,"","H",4,"f008",6,"visual"
"228","",NA,"",NA,"",NA,"","H",4,"f008",6,"visual"
"229","",NA,"",NA,"",NA,"","H",4,"f008",6,"visual"
"230","",NA,"",NA,"",NA,"","H",4,"f008",6,"visual"
"231","",NA,"",NA,"",NA,"","H",4,"f008",6,"visual"
"232","",NA,"",NA,"",NA,"","H",4,"f008",6,"visual"
