"","soundFile","trialnum","condition","random_block_key_resp.rt","random_block_key_resp.keys","structured_block_key_resp.rt","structured_block_key_resp.keys","starget","Run","PartID","ttarget","expName"
"1","pi.wav",289,"S",NA,"",NA,"None","bi",2,"f006","1C","auditory"
"2","tu.wav",290,"S",NA,"",NA,"None","bi",2,"f006","1C","auditory"
"3","bi.wav",291,"S",NA,"",NA,"None","bi",2,"f006","1C","auditory"
"4","di.wav",292,"S",NA,"",NA,"None","bi",2,"f006","1C","auditory"
"5","ba.wav",293,"S",NA,"",NA,"None","bi",2,"f006","1C","auditory"
"6","pu.wav",294,"S",NA,"",0.0420038871816,"3","bi",2,"f006","1C","auditory"
"7","ta.wav",295,"S",NA,"",NA,"None","bi",2,"f006","1C","auditory"
"8","ti.wav",296,"S",NA,"",NA,"None","bi",2,"f006","1C","auditory"
"9","du.wav",297,"S",NA,"",NA,"None","bi",2,"f006","1C","auditory"
"10","pi.wav",298,"S",NA,"",NA,"None","bi",2,"f006","1C","auditory"
"11","tu.wav",299,"S",NA,"",0.383676937316,"3","bi",2,"f006","1C","auditory"
"12","bi.wav",300,"S",NA,"",NA,"None","bi",2,"f006","1C","auditory"
"13","bu.wav",301,"S",NA,"",NA,"None","bi",2,"f006","1C","auditory"
"14","pa.wav",302,"S",NA,"",NA,"None","bi",2,"f006","1C","auditory"
"15","da.wav",303,"S",NA,"",NA,"None","bi",2,"f006","1C","auditory"
"16","di.wav",304,"S",NA,"",NA,"None","bi",2,"f006","1C","auditory"
"17","ba.wav",305,"S",NA,"",NA,"None","bi",2,"f006","1C","auditory"
"18","pu.wav",306,"S",NA,"",NA,"None","bi",2,"f006","1C","auditory"
"19","ta.wav",307,"S",NA,"",NA,"None","bi",2,"f006","1C","auditory"
"20","ti.wav",308,"S",NA,"",NA,"None","bi",2,"f006","1C","auditory"
"21","du.wav",309,"S",NA,"",0.119214012171,"3","bi",2,"f006","1C","auditory"
"22","pi.wav",310,"S",NA,"",NA,"None","bi",2,"f006","1C","auditory"
"23","tu.wav",311,"S",NA,"",NA,"None","bi",2,"f006","1C","auditory"
"24","bi.wav",312,"S",NA,"",NA,"None","bi",2,"f006","1C","auditory"
"25","bu.wav",313,"S",NA,"",NA,"None","bi",2,"f006","1C","auditory"
"26","pa.wav",314,"S",NA,"",NA,"None","bi",2,"f006","1C","auditory"
"27","da.wav",315,"S",NA,"",NA,"None","bi",2,"f006","1C","auditory"
"28","di.wav",316,"S",NA,"",NA,"None","bi",2,"f006","1C","auditory"
"29","ba.wav",317,"S",NA,"",0.308750899916,"3","bi",2,"f006","1C","auditory"
"30","pu.wav",318,"S",NA,"",NA,"None","bi",2,"f006","1C","auditory"
"31","bu.wav",319,"S",NA,"",NA,"None","bi",2,"f006","1C","auditory"
"32","pa.wav",320,"S",NA,"",NA,"None","bi",2,"f006","1C","auditory"
"33","da.wav",321,"S",NA,"",NA,"None","bi",2,"f006","1C","auditory"
"34","ta.wav",322,"S",NA,"",NA,"None","bi",2,"f006","1C","auditory"
"35","ti.wav",323,"S",NA,"",NA,"None","bi",2,"f006","1C","auditory"
"36","du.wav",324,"S",NA,"",NA,"None","bi",2,"f006","1C","auditory"
"37","pi.wav",325,"S",NA,"",NA,"None","bi",2,"f006","1C","auditory"
"38","tu.wav",326,"S",NA,"",NA,"None","bi",2,"f006","1C","auditory"
"39","bi.wav",327,"S",NA,"",NA,"None","bi",2,"f006","1C","auditory"
"40","ta.wav",328,"S",NA,"",0.200434517057,"3","bi",2,"f006","1C","auditory"
"41","ti.wav",329,"S",NA,"",NA,"None","bi",2,"f006","1C","auditory"
"42","du.wav",330,"S",NA,"",NA,"None","bi",2,"f006","1C","auditory"
"43","pi.wav",331,"S",NA,"",NA,"None","bi",2,"f006","1C","auditory"
"44","tu.wav",332,"S",NA,"",NA,"None","bi",2,"f006","1C","auditory"
"45","bi.wav",333,"S",NA,"",NA,"None","bi",2,"f006","1C","auditory"
"46","bu.wav",334,"S",NA,"",0.342060747615,"3","bi",2,"f006","1C","auditory"
"47","pa.wav",335,"S",NA,"",NA,"None","bi",2,"f006","1C","auditory"
"48","da.wav",336,"S",NA,"",NA,"None","bi",2,"f006","1C","auditory"
"49","di.wav",337,"S",NA,"",NA,"None","bi",2,"f006","1C","auditory"
"50","ba.wav",338,"S",NA,"",NA,"None","bi",2,"f006","1C","auditory"
"51","pu.wav",339,"S",NA,"",NA,"None","bi",2,"f006","1C","auditory"
"52","ta.wav",340,"S",NA,"",NA,"None","bi",2,"f006","1C","auditory"
"53","ti.wav",341,"S",NA,"",NA,"None","bi",2,"f006","1C","auditory"
"54","du.wav",342,"S",NA,"",NA,"None","bi",2,"f006","1C","auditory"
"55","pi.wav",343,"S",NA,"",NA,"None","bi",2,"f006","1C","auditory"
"56","tu.wav",344,"S",NA,"",NA,"None","bi",2,"f006","1C","auditory"
"57","bi.wav",345,"S",NA,"",NA,"None","bi",2,"f006","1C","auditory"
"58","bu.wav",346,"S",NA,"",0.369246509916,"3","bi",2,"f006","1C","auditory"
"59","pa.wav",347,"S",NA,"",NA,"None","bi",2,"f006","1C","auditory"
"60","da.wav",348,"S",NA,"",NA,"None","bi",2,"f006","1C","auditory"
"61","di.wav",349,"S",NA,"",NA,"None","bi",2,"f006","1C","auditory"
"62","ba.wav",350,"S",NA,"",NA,"None","bi",2,"f006","1C","auditory"
"63","pu.wav",351,"S",NA,"",NA,"None","bi",2,"f006","1C","auditory"
"64","bu.wav",352,"S",NA,"",NA,"None","bi",2,"f006","1C","auditory"
"65","pa.wav",353,"S",NA,"",NA,"None","bi",2,"f006","1C","auditory"
"66","da.wav",354,"S",NA,"",NA,"None","bi",2,"f006","1C","auditory"
"67","pi.wav",355,"S",NA,"",NA,"None","bi",2,"f006","1C","auditory"
"68","tu.wav",356,"S",NA,"",NA,"None","bi",2,"f006","1C","auditory"
"69","bi.wav",357,"S",NA,"",NA,"None","bi",2,"f006","1C","auditory"
"70","ta.wav",358,"S",NA,"",0.291999407229,"3","bi",2,"f006","1C","auditory"
"71","ti.wav",359,"S",NA,"",NA,"None","bi",2,"f006","1C","auditory"
"72","du.wav",360,"S",NA,"",NA,"None","bi",2,"f006","1C","auditory"
"73","di.wav",361,"S",NA,"",NA,"None","bi",2,"f006","1C","auditory"
"74","ba.wav",362,"S",NA,"",NA,"None","bi",2,"f006","1C","auditory"
"75","pu.wav",363,"S",NA,"",NA,"None","bi",2,"f006","1C","auditory"
"76","pi.wav",364,"S",NA,"",NA,"None","bi",2,"f006","1C","auditory"
"77","tu.wav",365,"S",NA,"",NA,"None","bi",2,"f006","1C","auditory"
"78","bi.wav",366,"S",NA,"",NA,"None","bi",2,"f006","1C","auditory"
"79","bu.wav",367,"S",NA,"",0.383700261766,"3","bi",2,"f006","1C","auditory"
"80","pa.wav",368,"S",NA,"",NA,"None","bi",2,"f006","1C","auditory"
"81","da.wav",369,"S",NA,"",NA,"None","bi",2,"f006","1C","auditory"
"82","ta.wav",370,"S",NA,"",NA,"None","bi",2,"f006","1C","auditory"
"83","ti.wav",371,"S",NA,"",NA,"None","bi",2,"f006","1C","auditory"
"84","du.wav",372,"S",NA,"",NA,"None","bi",2,"f006","1C","auditory"
"85","di.wav",373,"S",NA,"",NA,"None","bi",2,"f006","1C","auditory"
"86","ba.wav",374,"S",NA,"",NA,"None","bi",2,"f006","1C","auditory"
"87","pu.wav",375,"S",NA,"",NA,"None","bi",2,"f006","1C","auditory"
"88","bu.wav",376,"S",NA,"",NA,"None","bi",2,"f006","1C","auditory"
"89","pa.wav",377,"S",NA,"",NA,"None","bi",2,"f006","1C","auditory"
"90","da.wav",378,"S",NA,"",NA,"None","bi",2,"f006","1C","auditory"
"91","ta.wav",382,"S",NA,"",NA,"None","bi",2,"f006","1C","auditory"
"92","ti.wav",383,"S",NA,"",NA,"None","bi",2,"f006","1C","auditory"
"93","du.wav",384,"S",NA,"",NA,"None","bi",2,"f006","1C","auditory"
"94","di.wav",388,"S",NA,"",NA,"None","bi",2,"f006","1C","auditory"
"95","ba.wav",389,"S",NA,"",NA,"None","bi",2,"f006","1C","auditory"
"96","pu.wav",390,"S",NA,"",NA,"None","bi",2,"f006","1C","auditory"
"97","silence.wav",0,"B",NA,"",NA,"None","bi",2,"f006","1C","auditory"
"98","silence.wav",0,"B",NA,"",NA,"None","bi",2,"f006","1C","auditory"
"99","silence.wav",0,"B",NA,"",NA,"None","bi",2,"f006","1C","auditory"
"100","silence.wav",0,"B",NA,"",NA,"None","bi",2,"f006","1C","auditory"
"101","silence.wav",0,"B",NA,"",NA,"None","bi",2,"f006","1C","auditory"
"102","silence.wav",0,"B",NA,"",NA,"None","bi",2,"f006","1C","auditory"
"103","silence.wav",0,"B",NA,"",NA,"None","bi",2,"f006","1C","auditory"
"104","silence.wav",0,"B",NA,"",NA,"None","bi",2,"f006","1C","auditory"
"105","silence.wav",0,"B",NA,"",NA,"None","bi",2,"f006","1C","auditory"
"106","silence.wav",0,"B",NA,"",NA,"None","bi",2,"f006","1C","auditory"
"107","silence.wav",0,"B",NA,"",NA,"None","bi",2,"f006","1C","auditory"
"108","silence.wav",0,"B",NA,"",NA,"None","bi",2,"f006","1C","auditory"
"109","silence.wav",0,"B",NA,"",NA,"None","bi",2,"f006","1C","auditory"
"110","silence.wav",0,"B",NA,"",NA,"None","bi",2,"f006","1C","auditory"
"111","silence.wav",0,"B",NA,"",NA,"None","bi",2,"f006","1C","auditory"
"112","silence.wav",0,"B",NA,"",NA,"None","bi",2,"f006","1C","auditory"
"113","silence.wav",0,"B",NA,"",NA,"None","bi",2,"f006","1C","auditory"
"114","silence.wav",0,"B",NA,"",NA,"None","bi",2,"f006","1C","auditory"
"115","silence.wav",0,"B",NA,"",NA,"None","bi",2,"f006","1C","auditory"
"116","silence.wav",0,"B",NA,"",NA,"None","bi",2,"f006","1C","auditory"
"117","silence.wav",0,"B",NA,"",NA,"None","bi",2,"f006","1C","auditory"
"118","silence.wav",0,"B",NA,"",NA,"None","bi",2,"f006","1C","auditory"
"119","silence.wav",0,"B",NA,"",NA,"None","bi",2,"f006","1C","auditory"
"120","silence.wav",0,"B",NA,"",NA,"None","bi",2,"f006","1C","auditory"
"121","3B.wav",289,"R",NA,"None",NA,"","bi",2,"f006","1C","auditory"
"122","1B.wav",290,"R",NA,"None",NA,"","bi",2,"f006","1C","auditory"
"123","1C.wav",291,"R",NA,"None",NA,"","bi",2,"f006","1C","auditory"
"124","4C.wav",292,"R",NA,"None",NA,"","bi",2,"f006","1C","auditory"
"125","2A.wav",293,"R",NA,"None",NA,"","bi",2,"f006","1C","auditory"
"126","1B.wav",294,"R",NA,"None",NA,"","bi",2,"f006","1C","auditory"
"127","4A.wav",295,"R",NA,"None",NA,"","bi",2,"f006","1C","auditory"
"128","1A.wav",296,"R",NA,"None",NA,"","bi",2,"f006","1C","auditory"
"129","3C.wav",297,"R",NA,"None",NA,"","bi",2,"f006","1C","auditory"
"130","3A.wav",298,"R",NA,"None",NA,"","bi",2,"f006","1C","auditory"
"131","3C.wav",299,"R",0.0419754427858,"3",NA,"","bi",2,"f006","1C","auditory"
"132","4A.wav",300,"R",NA,"None",NA,"","bi",2,"f006","1C","auditory"
"133","3C.wav",301,"R",NA,"None",NA,"","bi",2,"f006","1C","auditory"
"134","2C.wav",302,"R",NA,"None",NA,"","bi",2,"f006","1C","auditory"
"135","3A.wav",303,"R",NA,"None",NA,"","bi",2,"f006","1C","auditory"
"136","3A.wav",304,"R",NA,"None",NA,"","bi",2,"f006","1C","auditory"
"137","2B.wav",305,"R",NA,"None",NA,"","bi",2,"f006","1C","auditory"
"138","4C.wav",306,"R",NA,"None",NA,"","bi",2,"f006","1C","auditory"
"139","1A.wav",307,"R",NA,"None",NA,"","bi",2,"f006","1C","auditory"
"140","3B.wav",308,"R",NA,"None",NA,"","bi",2,"f006","1C","auditory"
"141","4B.wav",309,"R",NA,"None",NA,"","bi",2,"f006","1C","auditory"
"142","1C.wav",310,"R",NA,"None",NA,"","bi",2,"f006","1C","auditory"
"143","3B.wav",311,"R",NA,"None",NA,"","bi",2,"f006","1C","auditory"
"144","4B.wav",312,"R",NA,"None",NA,"","bi",2,"f006","1C","auditory"
"145","4A.wav",337,"R",0.157582132553,"3",NA,"","bi",2,"f006","1C","auditory"
"146","3B.wav",338,"R",NA,"None",NA,"","bi",2,"f006","1C","auditory"
"147","1C.wav",339,"R",NA,"None",NA,"","bi",2,"f006","1C","auditory"
"148","3A.wav",340,"R",NA,"None",NA,"","bi",2,"f006","1C","auditory"
"149","2C.wav",341,"R",NA,"None",NA,"","bi",2,"f006","1C","auditory"
"150","4B.wav",342,"R",NA,"None",NA,"","bi",2,"f006","1C","auditory"
"151","3A.wav",343,"R",NA,"None",NA,"","bi",2,"f006","1C","auditory"
"152","2A.wav",344,"R",NA,"None",NA,"","bi",2,"f006","1C","auditory"
"153","1B.wav",345,"R",NA,"None",NA,"","bi",2,"f006","1C","auditory"
"154","4A.wav",346,"R",NA,"None",NA,"","bi",2,"f006","1C","auditory"
"155","2A.wav",347,"R",NA,"None",NA,"","bi",2,"f006","1C","auditory"
"156","2B.wav",348,"R",NA,"None",NA,"","bi",2,"f006","1C","auditory"
"157","3C.wav",349,"R",NA,"None",NA,"","bi",2,"f006","1C","auditory"
"158","3C.wav",350,"R",NA,"None",NA,"","bi",2,"f006","1C","auditory"
"159","2A.wav",351,"R",NA,"None",NA,"","bi",2,"f006","1C","auditory"
"160","4B.wav",352,"R",NA,"None",NA,"","bi",2,"f006","1C","auditory"
"161","4C.wav",353,"R",NA,"None",NA,"","bi",2,"f006","1C","auditory"
"162","2C.wav",354,"R",NA,"None",NA,"","bi",2,"f006","1C","auditory"
"163","2B.wav",355,"R",NA,"None",NA,"","bi",2,"f006","1C","auditory"
"164","1A.wav",356,"R",NA,"None",NA,"","bi",2,"f006","1C","auditory"
"165","2C.wav",357,"R",NA,"None",NA,"","bi",2,"f006","1C","auditory"
"166","4C.wav",358,"R",NA,"None",NA,"","bi",2,"f006","1C","auditory"
"167","2B.wav",359,"R",NA,"None",NA,"","bi",2,"f006","1C","auditory"
"168","3B.wav",360,"R",NA,"None",NA,"","bi",2,"f006","1C","auditory"
"169","2A.wav",313,"R",NA,"None",NA,"","bi",2,"f006","1C","auditory"
"170","3A.wav",314,"R",NA,"None",NA,"","bi",2,"f006","1C","auditory"
"171","4A.wav",315,"R",NA,"None",NA,"","bi",2,"f006","1C","auditory"
"172","1B.wav",316,"R",NA,"None",NA,"","bi",2,"f006","1C","auditory"
"173","2B.wav",317,"R",NA,"None",NA,"","bi",2,"f006","1C","auditory"
"174","1C.wav",318,"R",NA,"None",NA,"","bi",2,"f006","1C","auditory"
"175","1C.wav",319,"R",NA,"None",NA,"","bi",2,"f006","1C","auditory"
"176","1B.wav",320,"R",NA,"None",NA,"","bi",2,"f006","1C","auditory"
"177","2C.wav",321,"R",NA,"None",NA,"","bi",2,"f006","1C","auditory"
"178","4A.wav",322,"R",NA,"None",NA,"","bi",2,"f006","1C","auditory"
"179","4B.wav",323,"R",NA,"None",NA,"","bi",2,"f006","1C","auditory"
"180","3C.wav",324,"R",NA,"None",NA,"","bi",2,"f006","1C","auditory"
"181","3B.wav",325,"R",NA,"None",NA,"","bi",2,"f006","1C","auditory"
"182","4C.wav",326,"R",NA,"None",NA,"","bi",2,"f006","1C","auditory"
"183","3C.wav",327,"R",NA,"None",NA,"","bi",2,"f006","1C","auditory"
"184","4C.wav",328,"R",NA,"None",NA,"","bi",2,"f006","1C","auditory"
"185","2B.wav",329,"R",NA,"None",NA,"","bi",2,"f006","1C","auditory"
"186","1A.wav",330,"R",NA,"None",NA,"","bi",2,"f006","1C","auditory"
"187","1A.wav",331,"R",NA,"None",NA,"","bi",2,"f006","1C","auditory"
"188","2C.wav",332,"R",NA,"None",NA,"","bi",2,"f006","1C","auditory"
"189","2A.wav",333,"R",NA,"None",NA,"","bi",2,"f006","1C","auditory"
"190","3A.wav",334,"R",NA,"None",NA,"","bi",2,"f006","1C","auditory"
"191","3B.wav",335,"R",NA,"None",NA,"","bi",2,"f006","1C","auditory"
"192","4B.wav",336,"R",NA,"None",NA,"","bi",2,"f006","1C","auditory"
"193","4B.wav",361,"R",NA,"None",NA,"","bi",2,"f006","1C","auditory"
"194","4A.wav",362,"R",NA,"None",NA,"","bi",2,"f006","1C","auditory"
"195","2B.wav",363,"R",NA,"None",NA,"","bi",2,"f006","1C","auditory"
"196","1A.wav",364,"R",NA,"None",NA,"","bi",2,"f006","1C","auditory"
"197","4C.wav",365,"R",NA,"None",NA,"","bi",2,"f006","1C","auditory"
"198","2A.wav",366,"R",NA,"None",NA,"","bi",2,"f006","1C","auditory"
"199","3C.wav",367,"R",NA,"None",NA,"","bi",2,"f006","1C","auditory"
"200","1B.wav",368,"R",NA,"None",NA,"","bi",2,"f006","1C","auditory"
"201","1B.wav",369,"R",NA,"None",NA,"","bi",2,"f006","1C","auditory"
"202","2C.wav",370,"R",NA,"None",NA,"","bi",2,"f006","1C","auditory"
"203","2A.wav",371,"R",NA,"None",NA,"","bi",2,"f006","1C","auditory"
"204","4B.wav",372,"R",NA,"None",NA,"","bi",2,"f006","1C","auditory"
"205","1C.wav",373,"R",NA,"None",NA,"","bi",2,"f006","1C","auditory"
"206","2B.wav",374,"R",NA,"None",NA,"","bi",2,"f006","1C","auditory"
"207","1C.wav",375,"R",NA,"None",NA,"","bi",2,"f006","1C","auditory"
"208","4A.wav",376,"R",NA,"None",NA,"","bi",2,"f006","1C","auditory"
"209","1A.wav",377,"R",NA,"None",NA,"","bi",2,"f006","1C","auditory"
"210","3A.wav",378,"R",NA,"None",NA,"","bi",2,"f006","1C","auditory"
"211","1B.wav",379,"R",NA,"None",NA,"","bi",2,"f006","1C","auditory"
"212","1A.wav",380,"R",NA,"None",NA,"","bi",2,"f006","1C","auditory"
"213","2C.wav",381,"R",NA,"None",NA,"","bi",2,"f006","1C","auditory"
"214","3B.wav",382,"R",NA,"None",NA,"","bi",2,"f006","1C","auditory"
"215","4C.wav",383,"R",NA,"None",NA,"","bi",2,"f006","1C","auditory"
"216","1C.wav",384,"R",NA,"None",NA,"","bi",2,"f006","1C","auditory"
"217","silence.wav",0,"B",0.108683315979,"3",NA,"","bi",2,"f006","1C","auditory"
"218","silence.wav",0,"B",NA,"None",NA,"","bi",2,"f006","1C","auditory"
"219","silence.wav",0,"B",NA,"None",NA,"","bi",2,"f006","1C","auditory"
"220","silence.wav",0,"B",NA,"None",NA,"","bi",2,"f006","1C","auditory"
"221","silence.wav",0,"B",NA,"None",NA,"","bi",2,"f006","1C","auditory"
"222","silence.wav",0,"B",NA,"None",NA,"","bi",2,"f006","1C","auditory"
"223","silence.wav",0,"B",NA,"None",NA,"","bi",2,"f006","1C","auditory"
"224","silence.wav",0,"B",NA,"None",NA,"","bi",2,"f006","1C","auditory"
"225","silence.wav",0,"B",NA,"None",NA,"","bi",2,"f006","1C","auditory"
"226","silence.wav",0,"B",NA,"None",NA,"","bi",2,"f006","1C","auditory"
"227","silence.wav",0,"B",NA,"None",NA,"","bi",2,"f006","1C","auditory"
"228","silence.wav",0,"B",NA,"None",NA,"","bi",2,"f006","1C","auditory"
"229","silence.wav",0,"B",NA,"None",NA,"","bi",2,"f006","1C","auditory"
"230","silence.wav",0,"B",NA,"None",NA,"","bi",2,"f006","1C","auditory"
"231","silence.wav",0,"B",NA,"None",NA,"","bi",2,"f006","1C","auditory"
"232","silence.wav",0,"B",NA,"None",NA,"","bi",2,"f006","1C","auditory"
"233","silence.wav",0,"B",NA,"None",NA,"","bi",2,"f006","1C","auditory"
"234","silence.wav",0,"B",NA,"None",NA,"","bi",2,"f006","1C","auditory"
"235","silence.wav",0,"B",NA,"None",NA,"","bi",2,"f006","1C","auditory"
"236","silence.wav",0,"B",NA,"None",NA,"","bi",2,"f006","1C","auditory"
"237","silence.wav",0,"B",NA,"None",NA,"","bi",2,"f006","1C","auditory"
"238","silence.wav",0,"B",NA,"None",NA,"","bi",2,"f006","1C","auditory"
"239","silence.wav",0,"B",NA,"None",NA,"","bi",2,"f006","1C","auditory"
"240","silence.wav",0,"B",NA,"None",NA,"","bi",2,"f006","1C","auditory"
"241","pi.wav",379,"S",NA,"",NA,"None","bi",2,"f006","1C","auditory"
"242","tu.wav",380,"S",NA,"",NA,"None","bi",2,"f006","1C","auditory"
"243","bi.wav",381,"S",NA,"",NA,"None","bi",2,"f006","1C","auditory"
"244","pi.wav",385,"S",NA,"",NA,"None","bi",2,"f006","1C","auditory"
"245","tu.wav",386,"S",NA,"",NA,"None","bi",2,"f006","1C","auditory"
"246","bi.wav",387,"S",NA,"",NA,"None","bi",2,"f006","1C","auditory"
"247","bu.wav",391,"S",NA,"",NA,"None","bi",2,"f006","1C","auditory"
"248","pa.wav",392,"S",NA,"",NA,"None","bi",2,"f006","1C","auditory"
"249","da.wav",393,"S",NA,"",NA,"None","bi",2,"f006","1C","auditory"
"250","ta.wav",394,"S",NA,"",NA,"None","bi",2,"f006","1C","auditory"
"251","ti.wav",395,"S",NA,"",NA,"None","bi",2,"f006","1C","auditory"
"252","du.wav",396,"S",NA,"",NA,"None","bi",2,"f006","1C","auditory"
"253","di.wav",397,"S",NA,"",NA,"None","bi",2,"f006","1C","auditory"
"254","ba.wav",398,"S",NA,"",NA,"None","bi",2,"f006","1C","auditory"
"255","pu.wav",399,"S",NA,"",NA,"None","bi",2,"f006","1C","auditory"
"256","pi.wav",400,"S",NA,"",NA,"None","bi",2,"f006","1C","auditory"
"257","tu.wav",401,"S",NA,"",NA,"None","bi",2,"f006","1C","auditory"
"258","bi.wav",402,"S",NA,"",NA,"None","bi",2,"f006","1C","auditory"
"259","ta.wav",403,"S",NA,"",NA,"None","bi",2,"f006","1C","auditory"
"260","ti.wav",404,"S",NA,"",NA,"None","bi",2,"f006","1C","auditory"
"261","du.wav",405,"S",NA,"",NA,"None","bi",2,"f006","1C","auditory"
"262","bu.wav",406,"S",NA,"",NA,"None","bi",2,"f006","1C","auditory"
"263","pa.wav",407,"S",NA,"",NA,"None","bi",2,"f006","1C","auditory"
"264","da.wav",408,"S",NA,"",NA,"None","bi",2,"f006","1C","auditory"
"265","di.wav",409,"S",NA,"",NA,"None","bi",2,"f006","1C","auditory"
"266","ba.wav",410,"S",NA,"",0.408673900878,"3","bi",2,"f006","1C","auditory"
"267","pu.wav",411,"S",NA,"",NA,"None","bi",2,"f006","1C","auditory"
"268","pi.wav",412,"S",NA,"",NA,"None","bi",2,"f006","1C","auditory"
"269","tu.wav",413,"S",NA,"",NA,"None","bi",2,"f006","1C","auditory"
"270","bi.wav",414,"S",NA,"",NA,"None","bi",2,"f006","1C","auditory"
"271","di.wav",415,"S",NA,"",NA,"None","bi",2,"f006","1C","auditory"
"272","ba.wav",416,"S",NA,"",NA,"None","bi",2,"f006","1C","auditory"
"273","pu.wav",417,"S",NA,"",NA,"None","bi",2,"f006","1C","auditory"
"274","bu.wav",418,"S",NA,"",NA,"None","bi",2,"f006","1C","auditory"
"275","pa.wav",419,"S",NA,"",NA,"None","bi",2,"f006","1C","auditory"
"276","da.wav",420,"S",NA,"",NA,"None","bi",2,"f006","1C","auditory"
"277","ta.wav",421,"S",NA,"",NA,"None","bi",2,"f006","1C","auditory"
"278","ti.wav",422,"S",NA,"",NA,"None","bi",2,"f006","1C","auditory"
"279","du.wav",423,"S",NA,"",NA,"None","bi",2,"f006","1C","auditory"
"280","bu.wav",424,"S",NA,"",NA,"None","bi",2,"f006","1C","auditory"
"281","pa.wav",425,"S",NA,"",NA,"None","bi",2,"f006","1C","auditory"
"282","da.wav",426,"S",NA,"",NA,"None","bi",2,"f006","1C","auditory"
"283","ta.wav",427,"S",NA,"",NA,"None","bi",2,"f006","1C","auditory"
"284","ti.wav",428,"S",NA,"",NA,"None","bi",2,"f006","1C","auditory"
"285","du.wav",429,"S",NA,"",NA,"None","bi",2,"f006","1C","auditory"
"286","di.wav",430,"S",NA,"",NA,"None","bi",2,"f006","1C","auditory"
"287","ba.wav",431,"S",NA,"",NA,"None","bi",2,"f006","1C","auditory"
"288","pu.wav",432,"S",NA,"",NA,"None","bi",2,"f006","1C","auditory"
"289","pi.wav",433,"S",NA,"",NA,"None","bi",2,"f006","1C","auditory"
"290","tu.wav",434,"S",NA,"",NA,"None","bi",2,"f006","1C","auditory"
"291","bi.wav",435,"S",NA,"",NA,"None","bi",2,"f006","1C","auditory"
"292","ta.wav",436,"S",NA,"",NA,"None","bi",2,"f006","1C","auditory"
"293","ti.wav",437,"S",NA,"",NA,"None","bi",2,"f006","1C","auditory"
"294","du.wav",438,"S",NA,"",NA,"None","bi",2,"f006","1C","auditory"
"295","pi.wav",439,"S",NA,"",NA,"None","bi",2,"f006","1C","auditory"
"296","tu.wav",440,"S",NA,"",NA,"None","bi",2,"f006","1C","auditory"
"297","bi.wav",441,"S",NA,"",0.300321109185,"3","bi",2,"f006","1C","auditory"
"298","bu.wav",442,"S",NA,"",NA,"None","bi",2,"f006","1C","auditory"
"299","pa.wav",443,"S",NA,"",0.241971631243,"3","bi",2,"f006","1C","auditory"
"300","da.wav",444,"S",NA,"",NA,"None","bi",2,"f006","1C","auditory"
"301","di.wav",445,"S",NA,"",NA,"None","bi",2,"f006","1C","auditory"
"302","ba.wav",446,"S",NA,"",NA,"None","bi",2,"f006","1C","auditory"
"303","pu.wav",447,"S",NA,"",NA,"None","bi",2,"f006","1C","auditory"
"304","pi.wav",448,"S",NA,"",NA,"None","bi",2,"f006","1C","auditory"
"305","tu.wav",449,"S",NA,"",NA,"None","bi",2,"f006","1C","auditory"
"306","bi.wav",450,"S",NA,"",NA,"None","bi",2,"f006","1C","auditory"
"307","bu.wav",451,"S",NA,"",NA,"None","bi",2,"f006","1C","auditory"
"308","pa.wav",452,"S",NA,"",NA,"None","bi",2,"f006","1C","auditory"
"309","da.wav",453,"S",NA,"",NA,"None","bi",2,"f006","1C","auditory"
"310","di.wav",454,"S",NA,"",NA,"None","bi",2,"f006","1C","auditory"
"311","ba.wav",455,"S",NA,"",NA,"None","bi",2,"f006","1C","auditory"
"312","pu.wav",456,"S",NA,"",NA,"None","bi",2,"f006","1C","auditory"
"313","ta.wav",457,"S",NA,"",NA,"None","bi",2,"f006","1C","auditory"
"314","ti.wav",458,"S",NA,"",NA,"None","bi",2,"f006","1C","auditory"
"315","du.wav",459,"S",NA,"",NA,"None","bi",2,"f006","1C","auditory"
"316","di.wav",460,"S",NA,"",NA,"None","bi",2,"f006","1C","auditory"
"317","ba.wav",461,"S",NA,"",NA,"None","bi",2,"f006","1C","auditory"
"318","pu.wav",462,"S",NA,"",NA,"None","bi",2,"f006","1C","auditory"
"319","pi.wav",463,"S",NA,"",NA,"None","bi",2,"f006","1C","auditory"
"320","tu.wav",464,"S",NA,"",NA,"None","bi",2,"f006","1C","auditory"
"321","bi.wav",465,"S",NA,"",NA,"None","bi",2,"f006","1C","auditory"
"322","ta.wav",466,"S",NA,"",NA,"None","bi",2,"f006","1C","auditory"
"323","ti.wav",467,"S",NA,"",NA,"None","bi",2,"f006","1C","auditory"
"324","du.wav",468,"S",NA,"",NA,"None","bi",2,"f006","1C","auditory"
"325","bu.wav",469,"S",NA,"",NA,"None","bi",2,"f006","1C","auditory"
"326","pa.wav",470,"S",NA,"",NA,"None","bi",2,"f006","1C","auditory"
"327","da.wav",471,"S",NA,"",NA,"None","bi",2,"f006","1C","auditory"
"328","ta.wav",472,"S",NA,"",NA,"None","bi",2,"f006","1C","auditory"
"329","ti.wav",473,"S",NA,"",NA,"None","bi",2,"f006","1C","auditory"
"330","du.wav",474,"S",NA,"",NA,"None","bi",2,"f006","1C","auditory"
"331","di.wav",475,"S",NA,"",NA,"None","bi",2,"f006","1C","auditory"
"332","ba.wav",476,"S",NA,"",NA,"None","bi",2,"f006","1C","auditory"
"333","pu.wav",477,"S",NA,"",NA,"None","bi",2,"f006","1C","auditory"
"334","bu.wav",478,"S",NA,"",NA,"None","bi",2,"f006","1C","auditory"
"335","pa.wav",479,"S",NA,"",NA,"None","bi",2,"f006","1C","auditory"
"336","da.wav",480,"S",NA,"",NA,"None","bi",2,"f006","1C","auditory"
"337","silence.wav",0,"B",NA,"",NA,"None","bi",2,"f006","1C","auditory"
"338","silence.wav",0,"B",NA,"",0.425378175743,"3","bi",2,"f006","1C","auditory"
"339","silence.wav",0,"B",NA,"",NA,"None","bi",2,"f006","1C","auditory"
"340","silence.wav",0,"B",NA,"",NA,"None","bi",2,"f006","1C","auditory"
"341","silence.wav",0,"B",NA,"",NA,"None","bi",2,"f006","1C","auditory"
"342","silence.wav",0,"B",NA,"",NA,"None","bi",2,"f006","1C","auditory"
"343","silence.wav",0,"B",NA,"",NA,"None","bi",2,"f006","1C","auditory"
"344","silence.wav",0,"B",NA,"",NA,"None","bi",2,"f006","1C","auditory"
"345","silence.wav",0,"B",NA,"",NA,"None","bi",2,"f006","1C","auditory"
"346","silence.wav",0,"B",NA,"",NA,"None","bi",2,"f006","1C","auditory"
"347","silence.wav",0,"B",NA,"",NA,"None","bi",2,"f006","1C","auditory"
"348","silence.wav",0,"B",NA,"",NA,"None","bi",2,"f006","1C","auditory"
"349","silence.wav",0,"B",NA,"",NA,"None","bi",2,"f006","1C","auditory"
"350","silence.wav",0,"B",NA,"",NA,"None","bi",2,"f006","1C","auditory"
"351","silence.wav",0,"B",NA,"",NA,"None","bi",2,"f006","1C","auditory"
"352","silence.wav",0,"B",NA,"",NA,"None","bi",2,"f006","1C","auditory"
"353","silence.wav",0,"B",NA,"",NA,"None","bi",2,"f006","1C","auditory"
"354","silence.wav",0,"B",NA,"",NA,"None","bi",2,"f006","1C","auditory"
"355","silence.wav",0,"B",NA,"",NA,"None","bi",2,"f006","1C","auditory"
"356","silence.wav",0,"B",NA,"",NA,"None","bi",2,"f006","1C","auditory"
"357","silence.wav",0,"B",NA,"",NA,"None","bi",2,"f006","1C","auditory"
"358","silence.wav",0,"B",NA,"",NA,"None","bi",2,"f006","1C","auditory"
"359","silence.wav",0,"B",NA,"",NA,"None","bi",2,"f006","1C","auditory"
"360","silence.wav",0,"B",NA,"",NA,"None","bi",2,"f006","1C","auditory"
"361","2C.wav",385,"R",NA,"None",NA,"","bi",2,"f006","1C","auditory"
"362","1B.wav",386,"R",NA,"None",NA,"","bi",2,"f006","1C","auditory"
"363","3C.wav",387,"R",NA,"None",NA,"","bi",2,"f006","1C","auditory"
"364","2B.wav",388,"R",NA,"None",NA,"","bi",2,"f006","1C","auditory"
"365","3A.wav",389,"R",NA,"None",NA,"","bi",2,"f006","1C","auditory"
"366","2C.wav",390,"R",NA,"None",NA,"","bi",2,"f006","1C","auditory"
"367","3B.wav",391,"R",NA,"None",NA,"","bi",2,"f006","1C","auditory"
"368","3C.wav",392,"R",NA,"None",NA,"","bi",2,"f006","1C","auditory"
"369","2A.wav",393,"R",0.141939972586,"3",NA,"","bi",2,"f006","1C","auditory"
"370","3B.wav",394,"R",NA,"None",NA,"","bi",2,"f006","1C","auditory"
"371","4A.wav",395,"R",NA,"None",NA,"","bi",2,"f006","1C","auditory"
"372","3A.wav",396,"R",0.00870228838176,"3",NA,"","bi",2,"f006","1C","auditory"
"373","2B.wav",397,"R",NA,"None",NA,"","bi",2,"f006","1C","auditory"
"374","4A.wav",398,"R",NA,"None",NA,"","bi",2,"f006","1C","auditory"
"375","3C.wav",399,"R",NA,"None",NA,"","bi",2,"f006","1C","auditory"
"376","1C.wav",400,"R",NA,"None",NA,"","bi",2,"f006","1C","auditory"
"377","4C.wav",401,"R",NA,"None",NA,"","bi",2,"f006","1C","auditory"
"378","4B.wav",402,"R",0.0753441704437,"3",NA,"","bi",2,"f006","1C","auditory"
"379","3B.wav",403,"R",NA,"None",NA,"","bi",2,"f006","1C","auditory"
"380","4B.wav",404,"R",NA,"None",NA,"","bi",2,"f006","1C","auditory"
"381","2A.wav",405,"R",NA,"None",NA,"","bi",2,"f006","1C","auditory"
"382","3A.wav",406,"R",NA,"None",NA,"","bi",2,"f006","1C","auditory"
"383","1A.wav",407,"R",NA,"None",NA,"","bi",2,"f006","1C","auditory"
"384","4C.wav",408,"R",NA,"None",NA,"","bi",2,"f006","1C","auditory"
"385","1A.wav",409,"R",NA,"None",NA,"","bi",2,"f006","1C","auditory"
"386","4B.wav",410,"R",NA,"None",NA,"","bi",2,"f006","1C","auditory"
"387","1A.wav",411,"R",NA,"None",NA,"","bi",2,"f006","1C","auditory"
"388","4A.wav",412,"R",NA,"None",NA,"","bi",2,"f006","1C","auditory"
"389","2A.wav",413,"R",0.107577112154,"3",NA,"","bi",2,"f006","1C","auditory"
"390","4A.wav",414,"R",NA,"None",NA,"","bi",2,"f006","1C","auditory"
"391","1B.wav",415,"R",NA,"None",NA,"","bi",2,"f006","1C","auditory"
"392","2B.wav",416,"R",NA,"None",NA,"","bi",2,"f006","1C","auditory"
"393","1C.wav",417,"R",NA,"None",NA,"","bi",2,"f006","1C","auditory"
"394","1C.wav",418,"R",NA,"None",NA,"","bi",2,"f006","1C","auditory"
"395","4B.wav",419,"R",NA,"None",NA,"","bi",2,"f006","1C","auditory"
"396","2A.wav",420,"R",NA,"None",NA,"","bi",2,"f006","1C","auditory"
"397","3B.wav",421,"R",NA,"None",NA,"","bi",2,"f006","1C","auditory"
"398","1A.wav",422,"R",NA,"None",NA,"","bi",2,"f006","1C","auditory"
"399","2B.wav",423,"R",NA,"None",NA,"","bi",2,"f006","1C","auditory"
"400","3C.wav",424,"R",NA,"None",NA,"","bi",2,"f006","1C","auditory"
"401","4C.wav",425,"R",NA,"None",NA,"","bi",2,"f006","1C","auditory"
"402","3A.wav",426,"R",0.383707941684,"3",NA,"","bi",2,"f006","1C","auditory"
"403","2C.wav",427,"R",NA,"None",NA,"","bi",2,"f006","1C","auditory"
"404","1B.wav",428,"R",NA,"None",NA,"","bi",2,"f006","1C","auditory"
"405","4C.wav",429,"R",NA,"None",NA,"","bi",2,"f006","1C","auditory"
"406","2C.wav",430,"R",NA,"None",NA,"","bi",2,"f006","1C","auditory"
"407","1B.wav",431,"R",NA,"None",NA,"","bi",2,"f006","1C","auditory"
"408","1C.wav",432,"R",NA,"None",NA,"","bi",2,"f006","1C","auditory"
"409","3C.wav",433,"R",NA,"None",NA,"","bi",2,"f006","1C","auditory"
"410","3B.wav",434,"R",NA,"None",NA,"","bi",2,"f006","1C","auditory"
"411","2A.wav",435,"R",0.240798583021,"3",NA,"","bi",2,"f006","1C","auditory"
"412","3B.wav",436,"R",NA,"None",NA,"","bi",2,"f006","1C","auditory"
"413","1B.wav",437,"R",NA,"None",NA,"","bi",2,"f006","1C","auditory"
"414","2B.wav",438,"R",NA,"None",NA,"","bi",2,"f006","1C","auditory"
"415","3B.wav",439,"R",NA,"None",NA,"","bi",2,"f006","1C","auditory"
"416","4A.wav",440,"R",NA,"None",NA,"","bi",2,"f006","1C","auditory"
"417","2C.wav",441,"R",NA,"None",NA,"","bi",2,"f006","1C","auditory"
"418","3A.wav",442,"R",NA,"None",NA,"","bi",2,"f006","1C","auditory"
"419","1C.wav",443,"R",NA,"None",NA,"","bi",2,"f006","1C","auditory"
"420","3C.wav",444,"R",NA,"None",NA,"","bi",2,"f006","1C","auditory"
"421","2B.wav",445,"R",NA,"None",NA,"","bi",2,"f006","1C","auditory"
"422","2C.wav",446,"R",NA,"None",NA,"","bi",2,"f006","1C","auditory"
"423","3A.wav",447,"R",NA,"None",NA,"","bi",2,"f006","1C","auditory"
"424","2A.wav",448,"R",NA,"None",NA,"","bi",2,"f006","1C","auditory"
"425","3A.wav",449,"R",NA,"None",NA,"","bi",2,"f006","1C","auditory"
"426","1C.wav",450,"R",NA,"None",NA,"","bi",2,"f006","1C","auditory"
"427","4C.wav",451,"R",NA,"None",NA,"","bi",2,"f006","1C","auditory"
"428","1B.wav",452,"R",NA,"None",NA,"","bi",2,"f006","1C","auditory"
"429","1A.wav",453,"R",NA,"None",NA,"","bi",2,"f006","1C","auditory"
"430","3C.wav",454,"R",NA,"None",NA,"","bi",2,"f006","1C","auditory"
"431","4B.wav",455,"R",NA,"None",NA,"","bi",2,"f006","1C","auditory"
"432","1A.wav",456,"R",NA,"None",NA,"","bi",2,"f006","1C","auditory"
"433","2A.wav",457,"R",0.150397638849,"3",NA,"","bi",2,"f006","1C","auditory"
"434","1B.wav",458,"R",NA,"None",NA,"","bi",2,"f006","1C","auditory"
"435","4C.wav",459,"R",NA,"None",NA,"","bi",2,"f006","1C","auditory"
"436","1B.wav",460,"R",NA,"None",NA,"","bi",2,"f006","1C","auditory"
"437","3B.wav",461,"R",NA,"None",NA,"","bi",2,"f006","1C","auditory"
"438","4B.wav",462,"R",NA,"None",NA,"","bi",2,"f006","1C","auditory"
"439","2B.wav",463,"R",NA,"None",NA,"","bi",2,"f006","1C","auditory"
"440","4A.wav",464,"R",NA,"None",NA,"","bi",2,"f006","1C","auditory"
"441","4B.wav",465,"R",NA,"None",NA,"","bi",2,"f006","1C","auditory"
"442","2A.wav",466,"R",NA,"None",NA,"","bi",2,"f006","1C","auditory"
"443","4C.wav",467,"R",NA,"None",NA,"","bi",2,"f006","1C","auditory"
"444","4A.wav",468,"R",NA,"None",NA,"","bi",2,"f006","1C","auditory"
"445","1A.wav",469,"R",NA,"None",NA,"","bi",2,"f006","1C","auditory"
"446","4C.wav",470,"R",NA,"None",NA,"","bi",2,"f006","1C","auditory"
"447","3C.wav",471,"R",NA,"None",NA,"","bi",2,"f006","1C","auditory"
"448","1A.wav",472,"R",NA,"None",NA,"","bi",2,"f006","1C","auditory"
"449","4A.wav",473,"R",NA,"None",NA,"","bi",2,"f006","1C","auditory"
"450","4B.wav",474,"R",NA,"None",NA,"","bi",2,"f006","1C","auditory"
"451","2C.wav",475,"R",NA,"None",NA,"","bi",2,"f006","1C","auditory"
"452","1C.wav",476,"R",NA,"None",NA,"","bi",2,"f006","1C","auditory"
"453","2B.wav",477,"R",NA,"None",NA,"","bi",2,"f006","1C","auditory"
"454","2C.wav",478,"R",NA,"None",NA,"","bi",2,"f006","1C","auditory"
"455","1C.wav",479,"R",NA,"None",NA,"","bi",2,"f006","1C","auditory"
"456","3A.wav",480,"R",NA,"None",NA,"","bi",2,"f006","1C","auditory"
"457","silence.wav",0,"B",NA,"None",NA,"","bi",2,"f006","1C","auditory"
"458","silence.wav",0,"B",0.0763630499132,"3",NA,"","bi",2,"f006","1C","auditory"
"459","silence.wav",0,"B",NA,"None",NA,"","bi",2,"f006","1C","auditory"
"460","silence.wav",0,"B",NA,"None",NA,"","bi",2,"f006","1C","auditory"
"461","silence.wav",0,"B",NA,"None",NA,"","bi",2,"f006","1C","auditory"
"462","silence.wav",0,"B",NA,"None",NA,"","bi",2,"f006","1C","auditory"
"463","silence.wav",0,"B",NA,"None",NA,"","bi",2,"f006","1C","auditory"
"464","silence.wav",0,"B",NA,"None",NA,"","bi",2,"f006","1C","auditory"
"465","silence.wav",0,"B",NA,"None",NA,"","bi",2,"f006","1C","auditory"
"466","silence.wav",0,"B",NA,"None",NA,"","bi",2,"f006","1C","auditory"
"467","silence.wav",0,"B",NA,"None",NA,"","bi",2,"f006","1C","auditory"
"468","silence.wav",0,"B",NA,"None",NA,"","bi",2,"f006","1C","auditory"
"469","silence.wav",0,"B",NA,"None",NA,"","bi",2,"f006","1C","auditory"
"470","silence.wav",0,"B",NA,"None",NA,"","bi",2,"f006","1C","auditory"
"471","silence.wav",0,"B",NA,"None",NA,"","bi",2,"f006","1C","auditory"
"472","silence.wav",0,"B",NA,"None",NA,"","bi",2,"f006","1C","auditory"
"473","silence.wav",0,"B",NA,"None",NA,"","bi",2,"f006","1C","auditory"
"474","silence.wav",0,"B",NA,"None",NA,"","bi",2,"f006","1C","auditory"
"475","silence.wav",0,"B",NA,"None",NA,"","bi",2,"f006","1C","auditory"
"476","silence.wav",0,"B",NA,"None",NA,"","bi",2,"f006","1C","auditory"
"477","silence.wav",0,"B",NA,"None",NA,"","bi",2,"f006","1C","auditory"
"478","silence.wav",0,"B",NA,"None",NA,"","bi",2,"f006","1C","auditory"
"479","silence.wav",0,"B",NA,"None",NA,"","bi",2,"f006","1C","auditory"
"480","silence.wav",0,"B",NA,"None",NA,"","bi",2,"f006","1C","auditory"
"481","pi.wav",481,"S",NA,"",NA,"None","bi",2,"f006","1C","auditory"
"482","tu.wav",482,"S",NA,"",NA,"None","bi",2,"f006","1C","auditory"
"483","bi.wav",483,"S",NA,"",0.316979304131,"3","bi",2,"f006","1C","auditory"
"484","bu.wav",484,"S",NA,"",NA,"None","bi",2,"f006","1C","auditory"
"485","pa.wav",485,"S",NA,"",NA,"None","bi",2,"f006","1C","auditory"
"486","da.wav",486,"S",NA,"",NA,"None","bi",2,"f006","1C","auditory"
"487","di.wav",487,"S",NA,"",NA,"None","bi",2,"f006","1C","auditory"
"488","ba.wav",488,"S",NA,"",NA,"None","bi",2,"f006","1C","auditory"
"489","pu.wav",489,"S",NA,"",NA,"None","bi",2,"f006","1C","auditory"
"490","ta.wav",490,"S",NA,"",NA,"None","bi",2,"f006","1C","auditory"
"491","ti.wav",491,"S",NA,"",NA,"None","bi",2,"f006","1C","auditory"
"492","du.wav",492,"S",NA,"",NA,"None","bi",2,"f006","1C","auditory"
"493","bu.wav",493,"S",NA,"",NA,"None","bi",2,"f006","1C","auditory"
"494","pa.wav",494,"S",NA,"",NA,"None","bi",2,"f006","1C","auditory"
"495","da.wav",495,"S",NA,"",NA,"None","bi",2,"f006","1C","auditory"
"496","pi.wav",496,"S",NA,"",NA,"None","bi",2,"f006","1C","auditory"
"497","tu.wav",497,"S",NA,"",NA,"None","bi",2,"f006","1C","auditory"
"498","bi.wav",498,"S",NA,"",NA,"None","bi",2,"f006","1C","auditory"
"499","di.wav",499,"S",NA,"",NA,"None","bi",2,"f006","1C","auditory"
"500","ba.wav",500,"S",NA,"",NA,"None","bi",2,"f006","1C","auditory"
"501","pu.wav",501,"S",NA,"",NA,"None","bi",2,"f006","1C","auditory"
"502","ta.wav",502,"S",NA,"",NA,"None","bi",2,"f006","1C","auditory"
"503","ti.wav",503,"S",NA,"",NA,"None","bi",2,"f006","1C","auditory"
"504","du.wav",504,"S",NA,"",NA,"None","bi",2,"f006","1C","auditory"
"505","pi.wav",505,"S",NA,"",0.100311267364,"3","bi",2,"f006","1C","auditory"
"506","tu.wav",506,"S",NA,"",NA,"None","bi",2,"f006","1C","auditory"
"507","bi.wav",507,"S",NA,"",NA,"None","bi",2,"f006","1C","auditory"
"508","ta.wav",508,"S",NA,"",NA,"None","bi",2,"f006","1C","auditory"
"509","ti.wav",509,"S",NA,"",NA,"None","bi",2,"f006","1C","auditory"
"510","du.wav",510,"S",NA,"",NA,"None","bi",2,"f006","1C","auditory"
"511","bu.wav",511,"S",NA,"",NA,"None","bi",2,"f006","1C","auditory"
"512","pa.wav",512,"S",NA,"",NA,"None","bi",2,"f006","1C","auditory"
"513","da.wav",513,"S",NA,"",NA,"None","bi",2,"f006","1C","auditory"
"514","di.wav",514,"S",NA,"",NA,"None","bi",2,"f006","1C","auditory"
"515","ba.wav",515,"S",NA,"",NA,"None","bi",2,"f006","1C","auditory"
"516","pu.wav",516,"S",NA,"",NA,"None","bi",2,"f006","1C","auditory"
"517","bu.wav",517,"S",NA,"",NA,"None","bi",2,"f006","1C","auditory"
"518","pa.wav",518,"S",NA,"",0.325465699309,"3","bi",2,"f006","1C","auditory"
"519","da.wav",519,"S",NA,"",NA,"None","bi",2,"f006","1C","auditory"
"520","ta.wav",520,"S",NA,"",NA,"None","bi",2,"f006","1C","auditory"
"521","ti.wav",521,"S",NA,"",NA,"None","bi",2,"f006","1C","auditory"
"522","du.wav",522,"S",NA,"",NA,"None","bi",2,"f006","1C","auditory"
"523","pi.wav",523,"S",NA,"",NA,"None","bi",2,"f006","1C","auditory"
"524","tu.wav",524,"S",NA,"",NA,"None","bi",2,"f006","1C","auditory"
"525","bi.wav",525,"S",NA,"",NA,"None","bi",2,"f006","1C","auditory"
"526","di.wav",526,"S",NA,"",NA,"None","bi",2,"f006","1C","auditory"
"527","ba.wav",527,"S",NA,"",NA,"None","bi",2,"f006","1C","auditory"
"528","pu.wav",528,"S",NA,"",NA,"None","bi",2,"f006","1C","auditory"
"529","bu.wav",529,"S",NA,"",NA,"None","bi",2,"f006","1C","auditory"
"530","pa.wav",530,"S",NA,"",NA,"None","bi",2,"f006","1C","auditory"
"531","da.wav",531,"S",NA,"",NA,"None","bi",2,"f006","1C","auditory"
"532","pi.wav",532,"S",NA,"",NA,"None","bi",2,"f006","1C","auditory"
"533","tu.wav",533,"S",NA,"",NA,"None","bi",2,"f006","1C","auditory"
"534","bi.wav",534,"S",NA,"",NA,"None","bi",2,"f006","1C","auditory"
"535","ta.wav",535,"S",NA,"",NA,"None","bi",2,"f006","1C","auditory"
"536","ti.wav",536,"S",NA,"",NA,"None","bi",2,"f006","1C","auditory"
"537","du.wav",537,"S",NA,"",NA,"None","bi",2,"f006","1C","auditory"
"538","bu.wav",538,"S",NA,"",NA,"None","bi",2,"f006","1C","auditory"
"539","pa.wav",539,"S",NA,"",NA,"None","bi",2,"f006","1C","auditory"
"540","da.wav",540,"S",NA,"",NA,"None","bi",2,"f006","1C","auditory"
"541","pi.wav",541,"S",NA,"",NA,"None","bi",2,"f006","1C","auditory"
"542","tu.wav",542,"S",NA,"",NA,"None","bi",2,"f006","1C","auditory"
"543","bi.wav",543,"S",NA,"",NA,"None","bi",2,"f006","1C","auditory"
"544","ta.wav",544,"S",NA,"",NA,"None","bi",2,"f006","1C","auditory"
"545","ti.wav",545,"S",NA,"",NA,"None","bi",2,"f006","1C","auditory"
"546","du.wav",546,"S",NA,"",NA,"None","bi",2,"f006","1C","auditory"
"547","di.wav",547,"S",NA,"",NA,"None","bi",2,"f006","1C","auditory"
"548","ba.wav",548,"S",NA,"",NA,"None","bi",2,"f006","1C","auditory"
"549","pu.wav",549,"S",NA,"",NA,"None","bi",2,"f006","1C","auditory"
"550","bu.wav",550,"S",NA,"",NA,"None","bi",2,"f006","1C","auditory"
"551","pa.wav",551,"S",NA,"",0.40876890521,"3","bi",2,"f006","1C","auditory"
"552","da.wav",552,"S",NA,"",NA,"None","bi",2,"f006","1C","auditory"
"553","di.wav",553,"S",NA,"",NA,"None","bi",2,"f006","1C","auditory"
"554","ba.wav",554,"S",NA,"",NA,"None","bi",2,"f006","1C","auditory"
"555","pu.wav",555,"S",NA,"",NA,"None","bi",2,"f006","1C","auditory"
"556","ta.wav",556,"S",NA,"",NA,"None","bi",2,"f006","1C","auditory"
"557","ti.wav",557,"S",NA,"",NA,"None","bi",2,"f006","1C","auditory"
"558","du.wav",558,"S",NA,"",NA,"None","bi",2,"f006","1C","auditory"
"559","pi.wav",559,"S",NA,"",0.0669422552455,"3","bi",2,"f006","1C","auditory"
"560","tu.wav",560,"S",NA,"",NA,"None","bi",2,"f006","1C","auditory"
"561","bi.wav",561,"S",NA,"",NA,"None","bi",2,"f006","1C","auditory"
"562","di.wav",562,"S",NA,"",NA,"None","bi",2,"f006","1C","auditory"
"563","ba.wav",563,"S",NA,"",NA,"None","bi",2,"f006","1C","auditory"
"564","pu.wav",564,"S",NA,"",NA,"None","bi",2,"f006","1C","auditory"
"565","ta.wav",565,"S",NA,"",NA,"None","bi",2,"f006","1C","auditory"
"566","ti.wav",566,"S",NA,"",NA,"None","bi",2,"f006","1C","auditory"
"567","du.wav",567,"S",NA,"",NA,"None","bi",2,"f006","1C","auditory"
"568","bu.wav",568,"S",NA,"",NA,"None","bi",2,"f006","1C","auditory"
"569","pa.wav",569,"S",NA,"",NA,"None","bi",2,"f006","1C","auditory"
"570","da.wav",570,"S",NA,"",NA,"None","bi",2,"f006","1C","auditory"
"571","pi.wav",571,"S",NA,"",NA,"None","bi",2,"f006","1C","auditory"
"572","tu.wav",572,"S",NA,"",NA,"None","bi",2,"f006","1C","auditory"
"573","bi.wav",573,"S",NA,"",NA,"None","bi",2,"f006","1C","auditory"
"574","di.wav",574,"S",NA,"",NA,"None","bi",2,"f006","1C","auditory"
"575","ba.wav",575,"S",NA,"",NA,"None","bi",2,"f006","1C","auditory"
"576","pu.wav",576,"S",NA,"",NA,"None","bi",2,"f006","1C","auditory"
"577","silence.wav",0,"B",NA,"",NA,"None","bi",2,"f006","1C","auditory"
"578","silence.wav",0,"B",NA,"",NA,"None","bi",2,"f006","1C","auditory"
"579","silence.wav",0,"B",NA,"",NA,"None","bi",2,"f006","1C","auditory"
"580","silence.wav",0,"B",NA,"",NA,"None","bi",2,"f006","1C","auditory"
"581","silence.wav",0,"B",NA,"",NA,"None","bi",2,"f006","1C","auditory"
"582","silence.wav",0,"B",NA,"",NA,"None","bi",2,"f006","1C","auditory"
"583","silence.wav",0,"B",NA,"",NA,"None","bi",2,"f006","1C","auditory"
"584","silence.wav",0,"B",NA,"",NA,"None","bi",2,"f006","1C","auditory"
"585","silence.wav",0,"B",NA,"",NA,"None","bi",2,"f006","1C","auditory"
"586","silence.wav",0,"B",NA,"",NA,"None","bi",2,"f006","1C","auditory"
"587","silence.wav",0,"B",NA,"",NA,"None","bi",2,"f006","1C","auditory"
"588","silence.wav",0,"B",NA,"",NA,"None","bi",2,"f006","1C","auditory"
"589","silence.wav",0,"B",NA,"",NA,"None","bi",2,"f006","1C","auditory"
"590","silence.wav",0,"B",NA,"",NA,"None","bi",2,"f006","1C","auditory"
"591","silence.wav",0,"B",NA,"",NA,"None","bi",2,"f006","1C","auditory"
"592","silence.wav",0,"B",NA,"",NA,"None","bi",2,"f006","1C","auditory"
"593","silence.wav",0,"B",NA,"",NA,"None","bi",2,"f006","1C","auditory"
"594","silence.wav",0,"B",NA,"",NA,"None","bi",2,"f006","1C","auditory"
"595","silence.wav",0,"B",NA,"",NA,"None","bi",2,"f006","1C","auditory"
"596","silence.wav",0,"B",NA,"",NA,"None","bi",2,"f006","1C","auditory"
"597","silence.wav",0,"B",NA,"",NA,"None","bi",2,"f006","1C","auditory"
"598","silence.wav",0,"B",NA,"",NA,"None","bi",2,"f006","1C","auditory"
"599","silence.wav",0,"B",NA,"",NA,"None","bi",2,"f006","1C","auditory"
"600","silence.wav",0,"B",NA,"",NA,"None","bi",2,"f006","1C","auditory"
"601","4A.wav",481,"R",NA,"None",NA,"","bi",2,"f006","1C","auditory"
"602","2B.wav",482,"R",NA,"None",NA,"","bi",2,"f006","1C","auditory"
"603","4B.wav",483,"R",NA,"None",NA,"","bi",2,"f006","1C","auditory"
"604","1A.wav",484,"R",NA,"None",NA,"","bi",2,"f006","1C","auditory"
"605","2C.wav",485,"R",NA,"None",NA,"","bi",2,"f006","1C","auditory"
"606","3B.wav",486,"R",NA,"None",NA,"","bi",2,"f006","1C","auditory"
"607","3A.wav",487,"R",NA,"None",NA,"","bi",2,"f006","1C","auditory"
"608","3C.wav",488,"R",NA,"None",NA,"","bi",2,"f006","1C","auditory"
"609","4C.wav",489,"R",NA,"None",NA,"","bi",2,"f006","1C","auditory"
"610","4A.wav",490,"R",NA,"None",NA,"","bi",2,"f006","1C","auditory"
"611","1C.wav",491,"R",NA,"None",NA,"","bi",2,"f006","1C","auditory"
"612","2A.wav",492,"R",NA,"None",NA,"","bi",2,"f006","1C","auditory"
"613","2A.wav",493,"R",NA,"None",NA,"","bi",2,"f006","1C","auditory"
"614","1B.wav",494,"R",NA,"None",NA,"","bi",2,"f006","1C","auditory"
"615","3B.wav",495,"R",NA,"None",NA,"","bi",2,"f006","1C","auditory"
"616","4C.wav",496,"R",NA,"None",NA,"","bi",2,"f006","1C","auditory"
"617","3A.wav",497,"R",NA,"None",NA,"","bi",2,"f006","1C","auditory"
"618","1B.wav",498,"R",NA,"None",NA,"","bi",2,"f006","1C","auditory"
"619","4B.wav",499,"R",NA,"None",NA,"","bi",2,"f006","1C","auditory"
"620","1A.wav",500,"R",NA,"None",NA,"","bi",2,"f006","1C","auditory"
"621","1C.wav",501,"R",NA,"None",NA,"","bi",2,"f006","1C","auditory"
"622","2C.wav",502,"R",NA,"None",NA,"","bi",2,"f006","1C","auditory"
"623","2B.wav",503,"R",NA,"None",NA,"","bi",2,"f006","1C","auditory"
"624","3C.wav",504,"R",0.0419603672344,"3",NA,"","bi",2,"f006","1C","auditory"
"625","3B.wav",505,"R",NA,"None",NA,"","bi",2,"f006","1C","auditory"
"626","3B.wav",506,"R",NA,"None",NA,"","bi",2,"f006","1C","auditory"
"627","4A.wav",507,"R",NA,"None",NA,"","bi",2,"f006","1C","auditory"
"628","4A.wav",508,"R",NA,"None",NA,"","bi",2,"f006","1C","auditory"
"629","1B.wav",509,"R",NA,"None",NA,"","bi",2,"f006","1C","auditory"
"630","2C.wav",510,"R",NA,"None",NA,"","bi",2,"f006","1C","auditory"
"631","1A.wav",511,"R",NA,"None",NA,"","bi",2,"f006","1C","auditory"
"632","3C.wav",512,"R",NA,"None",NA,"","bi",2,"f006","1C","auditory"
"633","1C.wav",513,"R",NA,"None",NA,"","bi",2,"f006","1C","auditory"
"634","4C.wav",514,"R",NA,"None",NA,"","bi",2,"f006","1C","auditory"
"635","2B.wav",515,"R",0.11690261797,"3",NA,"","bi",2,"f006","1C","auditory"
"636","1A.wav",516,"R",NA,"None",NA,"","bi",2,"f006","1C","auditory"
"637","1B.wav",517,"R",NA,"None",NA,"","bi",2,"f006","1C","auditory"
"638","2B.wav",518,"R",NA,"None",NA,"","bi",2,"f006","1C","auditory"
"639","2A.wav",519,"R",NA,"None",NA,"","bi",2,"f006","1C","auditory"
"640","3A.wav",520,"R",NA,"None",NA,"","bi",2,"f006","1C","auditory"
"641","4B.wav",521,"R",NA,"None",NA,"","bi",2,"f006","1C","auditory"
"642","2C.wav",522,"R",NA,"None",NA,"","bi",2,"f006","1C","auditory"
"643","3C.wav",523,"R",0.0336201764294,"3",NA,"","bi",2,"f006","1C","auditory"
"644","4C.wav",524,"R",NA,"None",NA,"","bi",2,"f006","1C","auditory"
"645","1C.wav",525,"R",NA,"None",NA,"","bi",2,"f006","1C","auditory"
"646","3A.wav",526,"R",NA,"None",NA,"","bi",2,"f006","1C","auditory"
"647","4B.wav",527,"R",NA,"None",NA,"","bi",2,"f006","1C","auditory"
"648","2A.wav",528,"R",NA,"None",NA,"","bi",2,"f006","1C","auditory"
"649","4A.wav",529,"R",NA,"None",NA,"","bi",2,"f006","1C","auditory"
"650","3A.wav",530,"R",NA,"None",NA,"","bi",2,"f006","1C","auditory"
"651","2A.wav",531,"R",NA,"None",NA,"","bi",2,"f006","1C","auditory"
"652","4B.wav",532,"R",NA,"None",NA,"","bi",2,"f006","1C","auditory"
"653","2A.wav",533,"R",0.166986429482,"3",NA,"","bi",2,"f006","1C","auditory"
"654","2B.wav",534,"R",NA,"None",NA,"","bi",2,"f006","1C","auditory"
"655","2B.wav",535,"R",NA,"None",NA,"","bi",2,"f006","1C","auditory"
"656","2C.wav",536,"R",NA,"None",NA,"","bi",2,"f006","1C","auditory"
"657","4B.wav",537,"R",NA,"None",NA,"","bi",2,"f006","1C","auditory"
"658","3B.wav",538,"R",NA,"None",NA,"","bi",2,"f006","1C","auditory"
"659","2B.wav",539,"R",NA,"None",NA,"","bi",2,"f006","1C","auditory"
"660","4A.wav",540,"R",NA,"None",NA,"","bi",2,"f006","1C","auditory"
"661","3C.wav",541,"R",NA,"None",NA,"","bi",2,"f006","1C","auditory"
"662","2C.wav",542,"R",NA,"None",NA,"","bi",2,"f006","1C","auditory"
"663","4C.wav",543,"R",NA,"None",NA,"","bi",2,"f006","1C","auditory"
"664","3C.wav",544,"R",NA,"None",NA,"","bi",2,"f006","1C","auditory"
"665","1A.wav",545,"R",0.241975044541,"3",NA,"","bi",2,"f006","1C","auditory"
"666","4C.wav",546,"R",NA,"None",NA,"","bi",2,"f006","1C","auditory"
"667","2C.wav",547,"R",NA,"None",NA,"","bi",2,"f006","1C","auditory"
"668","1C.wav",548,"R",NA,"None",NA,"","bi",2,"f006","1C","auditory"
"669","1B.wav",549,"R",NA,"None",NA,"","bi",2,"f006","1C","auditory"
"670","2A.wav",550,"R",NA,"None",NA,"","bi",2,"f006","1C","auditory"
"671","3A.wav",551,"R",NA,"None",NA,"","bi",2,"f006","1C","auditory"
"672","3B.wav",552,"R",NA,"None",NA,"","bi",2,"f006","1C","auditory"
"673","1A.wav",553,"R",NA,"None",NA,"","bi",2,"f006","1C","auditory"
"674","2C.wav",554,"R",NA,"None",NA,"","bi",2,"f006","1C","auditory"
"675","2B.wav",555,"R",NA,"None",NA,"","bi",2,"f006","1C","auditory"
"676","4B.wav",556,"R",NA,"None",NA,"","bi",2,"f006","1C","auditory"
"677","1B.wav",557,"R",0.19203516189,"3",NA,"","bi",2,"f006","1C","auditory"
"678","4B.wav",558,"R",NA,"None",NA,"","bi",2,"f006","1C","auditory"
"679","1B.wav",559,"R",NA,"None",NA,"","bi",2,"f006","1C","auditory"
"680","4A.wav",560,"R",NA,"None",NA,"","bi",2,"f006","1C","auditory"
"681","3A.wav",561,"R",NA,"None",NA,"","bi",2,"f006","1C","auditory"
"682","2A.wav",562,"R",NA,"None",NA,"","bi",2,"f006","1C","auditory"
"683","4A.wav",563,"R",NA,"None",NA,"","bi",2,"f006","1C","auditory"
"684","3B.wav",564,"R",NA,"None",NA,"","bi",2,"f006","1C","auditory"
"685","4C.wav",565,"R",NA,"None",NA,"","bi",2,"f006","1C","auditory"
"686","1A.wav",566,"R",NA,"None",NA,"","bi",2,"f006","1C","auditory"
"687","1C.wav",567,"R",NA,"None",NA,"","bi",2,"f006","1C","auditory"
"688","3B.wav",568,"R",NA,"None",NA,"","bi",2,"f006","1C","auditory"
"689","4C.wav",569,"R",NA,"None",NA,"","bi",2,"f006","1C","auditory"
"690","3C.wav",570,"R",NA,"None",NA,"","bi",2,"f006","1C","auditory"
"691","1C.wav",571,"R",0.278108570667,"3",NA,"","bi",2,"f006","1C","auditory"
"692","3A.wav",572,"R",NA,"None",NA,"","bi",2,"f006","1C","auditory"
"693","1C.wav",573,"R",NA,"None",NA,"","bi",2,"f006","1C","auditory"
"694","1B.wav",574,"R",NA,"None",NA,"","bi",2,"f006","1C","auditory"
"695","3C.wav",575,"R",NA,"None",NA,"","bi",2,"f006","1C","auditory"
"696","1A.wav",576,"R",NA,"None",NA,"","bi",2,"f006","1C","auditory"
"697","",NA,"",NA,"",NA,"","bi",2,"f006","1C","auditory"
"698","",NA,"",NA,"",NA,"","bi",2,"f006","1C","auditory"
"699","",NA,"",NA,"",NA,"","bi",2,"f006","1C","auditory"
"700","",NA,"",NA,"",NA,"","bi",2,"f006","1C","auditory"
"701","",NA,"",NA,"",NA,"","bi",2,"f006","1C","auditory"
"702","",NA,"",NA,"",NA,"","bi",2,"f006","1C","auditory"
"703","",NA,"",NA,"",NA,"","bi",2,"f006","1C","auditory"
"704","",NA,"",NA,"",NA,"","bi",2,"f006","1C","auditory"
"705","",NA,"",NA,"",NA,"","bi",2,"f006","1C","auditory"
"706","",NA,"",NA,"",NA,"","bi",2,"f006","1C","auditory"
"707","",NA,"",NA,"",NA,"","bi",2,"f006","1C","auditory"
"708","",NA,"",NA,"",NA,"","bi",2,"f006","1C","auditory"
"709","",NA,"",NA,"",NA,"","bi",2,"f006","1C","auditory"
"710","",NA,"",NA,"",NA,"","bi",2,"f006","1C","auditory"
"711","",NA,"",NA,"",NA,"","bi",2,"f006","1C","auditory"
"712","",NA,"",NA,"",NA,"","bi",2,"f006","1C","auditory"
"713","",NA,"",NA,"",NA,"","bi",2,"f006","1C","auditory"
"714","",NA,"",NA,"",NA,"","bi",2,"f006","1C","auditory"
"715","",NA,"",NA,"",NA,"","bi",2,"f006","1C","auditory"
