"","soundFile","trialnum","condition","random_block_key_resp.rt","random_block_key_resp.keys","structured_block_key_resp.rt","structured_block_key_resp.keys","starget","Run","PartID","ttarget","expName"
"1","3A.wav",289,"S",NA,"",NA,"None","bi",4,"f006","1C","auditory"
"2","3B.wav",290,"S",NA,"",NA,"None","bi",4,"f006","1C","auditory"
"3","3C.wav",291,"S",NA,"",NA,"None","bi",4,"f006","1C","auditory"
"4","1A.wav",292,"S",NA,"",NA,"None","bi",4,"f006","1C","auditory"
"5","1B.wav",293,"S",NA,"",NA,"None","bi",4,"f006","1C","auditory"
"6","1C.wav",294,"S",NA,"",NA,"None","bi",4,"f006","1C","auditory"
"7","4A.wav",295,"S",NA,"",NA,"None","bi",4,"f006","1C","auditory"
"8","4B.wav",296,"S",NA,"",0.116946137918,"3","bi",4,"f006","1C","auditory"
"9","4C.wav",297,"S",NA,"",NA,"None","bi",4,"f006","1C","auditory"
"10","3A.wav",298,"S",NA,"",NA,"None","bi",4,"f006","1C","auditory"
"11","3B.wav",299,"S",NA,"",0.291979211674,"3","bi",4,"f006","1C","auditory"
"12","3C.wav",300,"S",NA,"",0.400404821092,"3","bi",4,"f006","1C","auditory"
"13","2A.wav",301,"S",NA,"",NA,"None","bi",4,"f006","1C","auditory"
"14","2B.wav",302,"S",NA,"",NA,"None","bi",4,"f006","1C","auditory"
"15","2C.wav",303,"S",NA,"",0.117130742234,"3","bi",4,"f006","1C","auditory"
"16","1A.wav",304,"S",NA,"",NA,"None","bi",4,"f006","1C","auditory"
"17","1B.wav",305,"S",NA,"",0.28359294089,"3","bi",4,"f006","1C","auditory"
"18","1C.wav",306,"S",NA,"",NA,"None","bi",4,"f006","1C","auditory"
"19","4A.wav",307,"S",NA,"",NA,"None","bi",4,"f006","1C","auditory"
"20","4B.wav",308,"S",NA,"",NA,"None","bi",4,"f006","1C","auditory"
"21","4C.wav",309,"S",NA,"",0.400347363378,"3","bi",4,"f006","1C","auditory"
"22","3A.wav",310,"S",NA,"",NA,"None","bi",4,"f006","1C","auditory"
"23","3B.wav",311,"S",NA,"",NA,"None","bi",4,"f006","1C","auditory"
"24","3C.wav",312,"S",NA,"",NA,"None","bi",4,"f006","1C","auditory"
"25","2A.wav",313,"S",NA,"",0.316995517467,"3","bi",4,"f006","1C","auditory"
"26","2B.wav",314,"S",NA,"",NA,"None","bi",4,"f006","1C","auditory"
"27","2C.wav",315,"S",NA,"",NA,"None","bi",4,"f006","1C","auditory"
"28","1A.wav",316,"S",NA,"",NA,"None","bi",4,"f006","1C","auditory"
"29","1B.wav",317,"S",NA,"",0.0753160104505,"3","bi",4,"f006","1C","auditory"
"30","1C.wav",318,"S",NA,"",NA,"None","bi",4,"f006","1C","auditory"
"31","2A.wav",319,"S",NA,"",0.21695532545,"3","bi",4,"f006","1C","auditory"
"32","2B.wav",320,"S",NA,"",NA,"None","bi",4,"f006","1C","auditory"
"33","2C.wav",321,"S",NA,"",NA,"None","bi",4,"f006","1C","auditory"
"34","4A.wav",322,"S",NA,"",NA,"None","bi",4,"f006","1C","auditory"
"35","4B.wav",323,"S",NA,"",0.108665395936,"3","bi",4,"f006","1C","auditory"
"36","4C.wav",324,"S",NA,"",NA,"None","bi",4,"f006","1C","auditory"
"37","3A.wav",325,"S",NA,"",NA,"None","bi",4,"f006","1C","auditory"
"38","3B.wav",326,"S",NA,"",NA,"None","bi",4,"f006","1C","auditory"
"39","3C.wav",327,"S",NA,"",0.3669866001,"3","bi",4,"f006","1C","auditory"
"40","4A.wav",328,"S",NA,"",NA,"None","bi",4,"f006","1C","auditory"
"41","4B.wav",329,"S",NA,"",NA,"None","bi",4,"f006","1C","auditory"
"42","4C.wav",330,"S",NA,"",NA,"None","bi",4,"f006","1C","auditory"
"43","3A.wav",331,"S",NA,"",0.016915617045,"3","bi",4,"f006","1C","auditory"
"44","3B.wav",332,"S",NA,"",NA,"None","bi",4,"f006","1C","auditory"
"45","3C.wav",333,"S",NA,"",NA,"None","bi",4,"f006","1C","auditory"
"46","2A.wav",334,"S",NA,"",NA,"None","bi",4,"f006","1C","auditory"
"47","2B.wav",335,"S",NA,"",NA,"None","bi",4,"f006","1C","auditory"
"48","2C.wav",336,"S",NA,"",NA,"None","bi",4,"f006","1C","auditory"
"49","1A.wav",337,"S",NA,"",NA,"None","bi",4,"f006","1C","auditory"
"50","1B.wav",338,"S",NA,"",NA,"None","bi",4,"f006","1C","auditory"
"51","1C.wav",339,"S",NA,"",0.233621769352,"3","bi",4,"f006","1C","auditory"
"52","4A.wav",340,"S",NA,"",NA,"None","bi",4,"f006","1C","auditory"
"53","4B.wav",341,"S",NA,"",NA,"None","bi",4,"f006","1C","auditory"
"54","4C.wav",342,"S",NA,"",NA,"None","bi",4,"f006","1C","auditory"
"55","3A.wav",343,"S",NA,"",NA,"None","bi",4,"f006","1C","auditory"
"56","3B.wav",344,"S",NA,"",NA,"None","bi",4,"f006","1C","auditory"
"57","3C.wav",345,"S",NA,"",NA,"None","bi",4,"f006","1C","auditory"
"58","2A.wav",346,"S",NA,"",NA,"None","bi",4,"f006","1C","auditory"
"59","2B.wav",347,"S",NA,"",NA,"None","bi",4,"f006","1C","auditory"
"60","2C.wav",348,"S",NA,"",NA,"None","bi",4,"f006","1C","auditory"
"61","1A.wav",349,"S",NA,"",0.142212470237,"3","bi",4,"f006","1C","auditory"
"62","1B.wav",350,"S",NA,"",NA,"None","bi",4,"f006","1C","auditory"
"63","1C.wav",351,"S",NA,"",NA,"None","bi",4,"f006","1C","auditory"
"64","2A.wav",352,"S",NA,"",NA,"None","bi",4,"f006","1C","auditory"
"65","2B.wav",353,"S",NA,"",0.0585926777567,"3","bi",4,"f006","1C","auditory"
"66","2C.wav",354,"S",NA,"",NA,"None","bi",4,"f006","1C","auditory"
"67","3A.wav",355,"S",NA,"",NA,"None","bi",4,"f006","1C","auditory"
"68","3B.wav",356,"S",NA,"",0.39200233703,"3","bi",4,"f006","1C","auditory"
"69","3C.wav",357,"S",NA,"",NA,"None","bi",4,"f006","1C","auditory"
"70","4A.wav",358,"S",NA,"",NA,"None","bi",4,"f006","1C","auditory"
"71","4B.wav",359,"S",NA,"",NA,"None","bi",4,"f006","1C","auditory"
"72","4C.wav",360,"S",NA,"",0.372709903517,"3","bi",4,"f006","1C","auditory"
"73","1A.wav",361,"S",NA,"",NA,"None","bi",4,"f006","1C","auditory"
"74","1B.wav",362,"S",NA,"",NA,"None","bi",4,"f006","1C","auditory"
"75","1C.wav",363,"S",NA,"",NA,"None","bi",4,"f006","1C","auditory"
"76","3A.wav",364,"S",NA,"",0.366927151277,"3","bi",4,"f006","1C","auditory"
"77","3B.wav",365,"S",NA,"",NA,"None","bi",4,"f006","1C","auditory"
"78","3C.wav",366,"S",NA,"",NA,"None","bi",4,"f006","1C","auditory"
"79","2A.wav",367,"S",NA,"",NA,"None","bi",4,"f006","1C","auditory"
"80","2B.wav",368,"S",NA,"",NA,"None","bi",4,"f006","1C","auditory"
"81","2C.wav",369,"S",NA,"",NA,"None","bi",4,"f006","1C","auditory"
"82","4A.wav",370,"S",NA,"",NA,"None","bi",4,"f006","1C","auditory"
"83","4B.wav",371,"S",NA,"",NA,"None","bi",4,"f006","1C","auditory"
"84","4C.wav",372,"S",NA,"",NA,"None","bi",4,"f006","1C","auditory"
"85","1A.wav",373,"S",NA,"",NA,"None","bi",4,"f006","1C","auditory"
"86","1B.wav",374,"S",NA,"",NA,"None","bi",4,"f006","1C","auditory"
"87","1C.wav",375,"S",NA,"",0.0418807227979,"3","bi",4,"f006","1C","auditory"
"88","2A.wav",376,"S",NA,"",NA,"None","bi",4,"f006","1C","auditory"
"89","2B.wav",377,"S",NA,"",NA,"None","bi",4,"f006","1C","auditory"
"90","2C.wav",378,"S",NA,"",NA,"None","bi",4,"f006","1C","auditory"
"91","4A.wav",382,"S",NA,"",NA,"None","bi",4,"f006","1C","auditory"
"92","4B.wav",383,"S",NA,"",NA,"None","bi",4,"f006","1C","auditory"
"93","4C.wav",384,"S",NA,"",NA,"None","bi",4,"f006","1C","auditory"
"94","1A.wav",388,"S",NA,"",NA,"None","bi",4,"f006","1C","auditory"
"95","1B.wav",389,"S",NA,"",NA,"None","bi",4,"f006","1C","auditory"
"96","1C.wav",390,"S",NA,"",NA,"None","bi",4,"f006","1C","auditory"
"97","silence.wav",0,"B",NA,"",NA,"None","bi",4,"f006","1C","auditory"
"98","silence.wav",0,"B",NA,"",NA,"None","bi",4,"f006","1C","auditory"
"99","silence.wav",0,"B",NA,"",0.0502704069368,"3","bi",4,"f006","1C","auditory"
"100","silence.wav",0,"B",NA,"",NA,"None","bi",4,"f006","1C","auditory"
"101","silence.wav",0,"B",NA,"",NA,"None","bi",4,"f006","1C","auditory"
"102","silence.wav",0,"B",NA,"",NA,"None","bi",4,"f006","1C","auditory"
"103","silence.wav",0,"B",NA,"",NA,"None","bi",4,"f006","1C","auditory"
"104","silence.wav",0,"B",NA,"",NA,"None","bi",4,"f006","1C","auditory"
"105","silence.wav",0,"B",NA,"",NA,"None","bi",4,"f006","1C","auditory"
"106","silence.wav",0,"B",NA,"",NA,"None","bi",4,"f006","1C","auditory"
"107","silence.wav",0,"B",NA,"",NA,"None","bi",4,"f006","1C","auditory"
"108","silence.wav",0,"B",NA,"",NA,"None","bi",4,"f006","1C","auditory"
"109","silence.wav",0,"B",NA,"",NA,"None","bi",4,"f006","1C","auditory"
"110","silence.wav",0,"B",NA,"",NA,"None","bi",4,"f006","1C","auditory"
"111","silence.wav",0,"B",NA,"",NA,"None","bi",4,"f006","1C","auditory"
"112","silence.wav",0,"B",NA,"",NA,"None","bi",4,"f006","1C","auditory"
"113","silence.wav",0,"B",NA,"",NA,"None","bi",4,"f006","1C","auditory"
"114","silence.wav",0,"B",NA,"",NA,"None","bi",4,"f006","1C","auditory"
"115","silence.wav",0,"B",NA,"",NA,"None","bi",4,"f006","1C","auditory"
"116","silence.wav",0,"B",NA,"",NA,"None","bi",4,"f006","1C","auditory"
"117","silence.wav",0,"B",NA,"",NA,"None","bi",4,"f006","1C","auditory"
"118","silence.wav",0,"B",NA,"",NA,"None","bi",4,"f006","1C","auditory"
"119","silence.wav",0,"B",NA,"",NA,"None","bi",4,"f006","1C","auditory"
"120","silence.wav",0,"B",NA,"",NA,"None","bi",4,"f006","1C","auditory"
"121","ba.wav",289,"R",NA,"None",NA,"","bi",4,"f006","1C","auditory"
"122","tu.wav",290,"R",NA,"None",NA,"","bi",4,"f006","1C","auditory"
"123","pi.wav",291,"R",NA,"None",NA,"","bi",4,"f006","1C","auditory"
"124","du.wav",292,"R",NA,"None",NA,"","bi",4,"f006","1C","auditory"
"125","ti.wav",293,"R",0.0397633195971,"3",NA,"","bi",4,"f006","1C","auditory"
"126","bi.wav",294,"R",NA,"None",NA,"","bi",4,"f006","1C","auditory"
"127","pu.wav",295,"R",NA,"None",NA,"","bi",4,"f006","1C","auditory"
"128","di.wav",296,"R",NA,"None",NA,"","bi",4,"f006","1C","auditory"
"129","tu.wav",297,"R",0.0919605521485,"3",NA,"","bi",4,"f006","1C","auditory"
"130","da.wav",298,"R",NA,"None",NA,"","bi",4,"f006","1C","auditory"
"131","da.wav",299,"R",NA,"None",NA,"","bi",4,"f006","1C","auditory"
"132","bi.wav",300,"R",NA,"None",NA,"","bi",4,"f006","1C","auditory"
"133","du.wav",301,"R",NA,"None",NA,"","bi",4,"f006","1C","auditory"
"134","bu.wav",302,"R",0.375406150881,"3",NA,"","bi",4,"f006","1C","auditory"
"135","pa.wav",303,"R",NA,"None",NA,"","bi",4,"f006","1C","auditory"
"136","ti.wav",304,"R",NA,"None",NA,"","bi",4,"f006","1C","auditory"
"137","pi.wav",305,"R",NA,"None",NA,"","bi",4,"f006","1C","auditory"
"138","pa.wav",306,"R",NA,"None",NA,"","bi",4,"f006","1C","auditory"
"139","ta.wav",307,"R",NA,"None",NA,"","bi",4,"f006","1C","auditory"
"140","pa.wav",308,"R",NA,"None",NA,"","bi",4,"f006","1C","auditory"
"141","bu.wav",309,"R",0.208683970151,"3",NA,"","bi",4,"f006","1C","auditory"
"142","ta.wav",310,"R",NA,"None",NA,"","bi",4,"f006","1C","auditory"
"143","bu.wav",311,"R",NA,"None",NA,"","bi",4,"f006","1C","auditory"
"144","da.wav",312,"R",0.325343957113,"3",NA,"","bi",4,"f006","1C","auditory"
"145","du.wav",337,"R",NA,"None",NA,"","bi",4,"f006","1C","auditory"
"146","ba.wav",338,"R",NA,"None",NA,"","bi",4,"f006","1C","auditory"
"147","ti.wav",339,"R",0.425294264685,"3",NA,"","bi",4,"f006","1C","auditory"
"148","bu.wav",340,"R",NA,"None",NA,"","bi",4,"f006","1C","auditory"
"149","bi.wav",341,"R",NA,"None",NA,"","bi",4,"f006","1C","auditory"
"150","ti.wav",342,"R",NA,"None",NA,"","bi",4,"f006","1C","auditory"
"151","pu.wav",343,"R",NA,"None",NA,"","bi",4,"f006","1C","auditory"
"152","ba.wav",344,"R",0.34198821435,"3",NA,"","bi",4,"f006","1C","auditory"
"153","ta.wav",345,"R",NA,"None",NA,"","bi",4,"f006","1C","auditory"
"154","pa.wav",346,"R",NA,"None",NA,"","bi",4,"f006","1C","auditory"
"155","tu.wav",347,"R",NA,"None",NA,"","bi",4,"f006","1C","auditory"
"156","bu.wav",348,"R",NA,"None",NA,"","bi",4,"f006","1C","auditory"
"157","pu.wav",349,"R",NA,"None",NA,"","bi",4,"f006","1C","auditory"
"158","di.wav",350,"R",NA,"None",NA,"","bi",4,"f006","1C","auditory"
"159","pi.wav",351,"R",NA,"None",NA,"","bi",4,"f006","1C","auditory"
"160","du.wav",352,"R",NA,"None",NA,"","bi",4,"f006","1C","auditory"
"161","da.wav",353,"R",NA,"None",NA,"","bi",4,"f006","1C","auditory"
"162","pi.wav",354,"R",NA,"None",NA,"","bi",4,"f006","1C","auditory"
"163","di.wav",355,"R",NA,"None",NA,"","bi",4,"f006","1C","auditory"
"164","tu.wav",356,"R",NA,"None",NA,"","bi",4,"f006","1C","auditory"
"165","pa.wav",357,"R",NA,"None",NA,"","bi",4,"f006","1C","auditory"
"166","ta.wav",358,"R",NA,"None",NA,"","bi",4,"f006","1C","auditory"
"167","da.wav",359,"R",NA,"None",NA,"","bi",4,"f006","1C","auditory"
"168","bi.wav",360,"R",NA,"None",NA,"","bi",4,"f006","1C","auditory"
"169","ba.wav",313,"R",0.325339690491,"3",NA,"","bi",4,"f006","1C","auditory"
"170","di.wav",314,"R",NA,"None",NA,"","bi",4,"f006","1C","auditory"
"171","pu.wav",315,"R",NA,"None",NA,"","bi",4,"f006","1C","auditory"
"172","bu.wav",316,"R",NA,"None",NA,"","bi",4,"f006","1C","auditory"
"173","pu.wav",317,"R",NA,"None",NA,"","bi",4,"f006","1C","auditory"
"174","du.wav",318,"R",NA,"None",NA,"","bi",4,"f006","1C","auditory"
"175","da.wav",319,"R",NA,"None",NA,"","bi",4,"f006","1C","auditory"
"176","pa.wav",320,"R",NA,"None",NA,"","bi",4,"f006","1C","auditory"
"177","da.wav",321,"R",NA,"None",NA,"","bi",4,"f006","1C","auditory"
"178","ti.wav",322,"R",NA,"None",NA,"","bi",4,"f006","1C","auditory"
"179","ti.wav",323,"R",NA,"None",NA,"","bi",4,"f006","1C","auditory"
"180","bu.wav",324,"R",NA,"None",NA,"","bi",4,"f006","1C","auditory"
"181","di.wav",325,"R",NA,"None",NA,"","bi",4,"f006","1C","auditory"
"182","ta.wav",326,"R",NA,"None",NA,"","bi",4,"f006","1C","auditory"
"183","pa.wav",327,"R",NA,"None",NA,"","bi",4,"f006","1C","auditory"
"184","ta.wav",328,"R",NA,"None",NA,"","bi",4,"f006","1C","auditory"
"185","ba.wav",329,"R",0.100280831859,"3",NA,"","bi",4,"f006","1C","auditory"
"186","di.wav",330,"R",NA,"None",NA,"","bi",4,"f006","1C","auditory"
"187","tu.wav",331,"R",NA,"None",NA,"","bi",4,"f006","1C","auditory"
"188","pu.wav",332,"R",NA,"None",NA,"","bi",4,"f006","1C","auditory"
"189","bi.wav",333,"R",NA,"None",NA,"","bi",4,"f006","1C","auditory"
"190","ba.wav",334,"R",NA,"None",NA,"","bi",4,"f006","1C","auditory"
"191","du.wav",335,"R",NA,"None",NA,"","bi",4,"f006","1C","auditory"
"192","pi.wav",336,"R",NA,"None",NA,"","bi",4,"f006","1C","auditory"
"193","di.wav",361,"R",NA,"None",NA,"","bi",4,"f006","1C","auditory"
"194","pu.wav",362,"R",NA,"None",NA,"","bi",4,"f006","1C","auditory"
"195","ta.wav",363,"R",NA,"None",NA,"","bi",4,"f006","1C","auditory"
"196","pi.wav",364,"R",NA,"None",NA,"","bi",4,"f006","1C","auditory"
"197","ti.wav",365,"R",NA,"None",NA,"","bi",4,"f006","1C","auditory"
"198","pa.wav",366,"R",NA,"None",NA,"","bi",4,"f006","1C","auditory"
"199","pu.wav",367,"R",NA,"None",NA,"","bi",4,"f006","1C","auditory"
"200","di.wav",368,"R",NA,"None",NA,"","bi",4,"f006","1C","auditory"
"201","bu.wav",369,"R",NA,"None",NA,"","bi",4,"f006","1C","auditory"
"202","ta.wav",370,"R",NA,"None",NA,"","bi",4,"f006","1C","auditory"
"203","bi.wav",371,"R",NA,"None",NA,"","bi",4,"f006","1C","auditory"
"204","bu.wav",372,"R",NA,"None",NA,"","bi",4,"f006","1C","auditory"
"205","du.wav",373,"R",NA,"None",NA,"","bi",4,"f006","1C","auditory"
"206","da.wav",374,"R",NA,"None",NA,"","bi",4,"f006","1C","auditory"
"207","pi.wav",375,"R",NA,"None",NA,"","bi",4,"f006","1C","auditory"
"208","ba.wav",376,"R",NA,"None",NA,"","bi",4,"f006","1C","auditory"
"209","ba.wav",377,"R",NA,"None",NA,"","bi",4,"f006","1C","auditory"
"210","tu.wav",378,"R",NA,"None",NA,"","bi",4,"f006","1C","auditory"
"211","ti.wav",379,"R",NA,"None",NA,"","bi",4,"f006","1C","auditory"
"212","bi.wav",380,"R",NA,"None",NA,"","bi",4,"f006","1C","auditory"
"213","du.wav",381,"R",NA,"None",NA,"","bi",4,"f006","1C","auditory"
"214","pa.wav",382,"R",NA,"None",NA,"","bi",4,"f006","1C","auditory"
"215","da.wav",383,"R",NA,"None",NA,"","bi",4,"f006","1C","auditory"
"216","tu.wav",384,"R",NA,"None",NA,"","bi",4,"f006","1C","auditory"
"217","silence.wav",0,"B",NA,"None",NA,"","bi",4,"f006","1C","auditory"
"218","silence.wav",0,"B",NA,"None",NA,"","bi",4,"f006","1C","auditory"
"219","silence.wav",0,"B",NA,"None",NA,"","bi",4,"f006","1C","auditory"
"220","silence.wav",0,"B",NA,"None",NA,"","bi",4,"f006","1C","auditory"
"221","silence.wav",0,"B",NA,"None",NA,"","bi",4,"f006","1C","auditory"
"222","silence.wav",0,"B",NA,"None",NA,"","bi",4,"f006","1C","auditory"
"223","silence.wav",0,"B",NA,"None",NA,"","bi",4,"f006","1C","auditory"
"224","silence.wav",0,"B",NA,"None",NA,"","bi",4,"f006","1C","auditory"
"225","silence.wav",0,"B",NA,"None",NA,"","bi",4,"f006","1C","auditory"
"226","silence.wav",0,"B",NA,"None",NA,"","bi",4,"f006","1C","auditory"
"227","silence.wav",0,"B",NA,"None",NA,"","bi",4,"f006","1C","auditory"
"228","silence.wav",0,"B",0.0919875743566,"3",NA,"","bi",4,"f006","1C","auditory"
"229","silence.wav",0,"B",0.258678181737,"4",NA,"","bi",4,"f006","1C","auditory"
"230","silence.wav",0,"B",NA,"None",NA,"","bi",4,"f006","1C","auditory"
"231","silence.wav",0,"B",NA,"None",NA,"","bi",4,"f006","1C","auditory"
"232","silence.wav",0,"B",NA,"None",NA,"","bi",4,"f006","1C","auditory"
"233","silence.wav",0,"B",NA,"None",NA,"","bi",4,"f006","1C","auditory"
"234","silence.wav",0,"B",NA,"None",NA,"","bi",4,"f006","1C","auditory"
"235","silence.wav",0,"B",NA,"None",NA,"","bi",4,"f006","1C","auditory"
"236","silence.wav",0,"B",NA,"None",NA,"","bi",4,"f006","1C","auditory"
"237","silence.wav",0,"B",NA,"None",NA,"","bi",4,"f006","1C","auditory"
"238","silence.wav",0,"B",NA,"None",NA,"","bi",4,"f006","1C","auditory"
"239","silence.wav",0,"B",NA,"None",NA,"","bi",4,"f006","1C","auditory"
"240","silence.wav",0,"B",NA,"None",NA,"","bi",4,"f006","1C","auditory"
"241","3A.wav",379,"S",NA,"",NA,"None","bi",4,"f006","1C","auditory"
"242","3B.wav",380,"S",NA,"",NA,"None","bi",4,"f006","1C","auditory"
"243","3C.wav",381,"S",NA,"",0.333852254553,"3","bi",4,"f006","1C","auditory"
"244","3A.wav",385,"S",NA,"",NA,"None","bi",4,"f006","1C","auditory"
"245","3B.wav",386,"S",NA,"",NA,"None","bi",4,"f006","1C","auditory"
"246","3C.wav",387,"S",NA,"",NA,"None","bi",4,"f006","1C","auditory"
"247","2A.wav",391,"S",NA,"",NA,"None","bi",4,"f006","1C","auditory"
"248","2B.wav",392,"S",NA,"",0.0253104211297,"3","bi",4,"f006","1C","auditory"
"249","2C.wav",393,"S",NA,"",NA,"None","bi",4,"f006","1C","auditory"
"250","4A.wav",394,"S",NA,"",NA,"None","bi",4,"f006","1C","auditory"
"251","4B.wav",395,"S",NA,"",0.441979766299,"3","bi",4,"f006","1C","auditory"
"252","4C.wav",396,"S",NA,"",NA,"None","bi",4,"f006","1C","auditory"
"253","1A.wav",397,"S",NA,"",NA,"None","bi",4,"f006","1C","auditory"
"254","1B.wav",398,"S",NA,"",NA,"None","bi",4,"f006","1C","auditory"
"255","1C.wav",399,"S",NA,"",0.350667462742,"3","bi",4,"f006","1C","auditory"
"256","3A.wav",400,"S",NA,"",0.0586333533283,"3","bi",4,"f006","1C","auditory"
"257","3B.wav",401,"S",NA,"",NA,"None","bi",4,"f006","1C","auditory"
"258","3C.wav",402,"S",NA,"",NA,"None","bi",4,"f006","1C","auditory"
"259","4A.wav",403,"S",NA,"",0.358733449248,"3","bi",4,"f006","1C","auditory"
"260","4B.wav",404,"S",NA,"",NA,"None","bi",4,"f006","1C","auditory"
"261","4C.wav",405,"S",NA,"",NA,"None","bi",4,"f006","1C","auditory"
"262","2A.wav",406,"S",NA,"",NA,"None","bi",4,"f006","1C","auditory"
"263","2B.wav",407,"S",NA,"",NA,"None","bi",4,"f006","1C","auditory"
"264","2C.wav",408,"S",NA,"",0.000308337621391,"3","bi",4,"f006","1C","auditory"
"265","1A.wav",409,"S",NA,"",NA,"None","bi",4,"f006","1C","auditory"
"266","1B.wav",410,"S",NA,"",NA,"None","bi",4,"f006","1C","auditory"
"267","1C.wav",411,"S",NA,"",NA,"None","bi",4,"f006","1C","auditory"
"268","3A.wav",412,"S",NA,"",0.183640642208,"3","bi",4,"f006","1C","auditory"
"269","3B.wav",413,"S",NA,"",NA,"None","bi",4,"f006","1C","auditory"
"270","3C.wav",414,"S",NA,"",NA,"None","bi",4,"f006","1C","auditory"
"271","1A.wav",415,"S",NA,"",NA,"None","bi",4,"f006","1C","auditory"
"272","1B.wav",416,"S",NA,"",0.30870567332,"3","bi",4,"f006","1C","auditory"
"273","1C.wav",417,"S",NA,"",NA,"None","bi",4,"f006","1C","auditory"
"274","2A.wav",418,"S",NA,"",NA,"None","bi",4,"f006","1C","auditory"
"275","2B.wav",419,"S",NA,"",NA,"None","bi",4,"f006","1C","auditory"
"276","2C.wav",420,"S",NA,"",NA,"None","bi",4,"f006","1C","auditory"
"277","4A.wav",421,"S",NA,"",0.0086436928832,"3","bi",4,"f006","1C","auditory"
"278","4B.wav",422,"S",NA,"",NA,"None","bi",4,"f006","1C","auditory"
"279","4C.wav",423,"S",NA,"",NA,"None","bi",4,"f006","1C","auditory"
"280","2A.wav",424,"S",NA,"",NA,"None","bi",4,"f006","1C","auditory"
"281","2B.wav",425,"S",NA,"",0.0252836833824,"3","bi",4,"f006","1C","auditory"
"282","2C.wav",426,"S",NA,"",NA,"None","bi",4,"f006","1C","auditory"
"283","4A.wav",427,"S",NA,"",NA,"None","bi",4,"f006","1C","auditory"
"284","4B.wav",428,"S",NA,"",NA,"None","bi",4,"f006","1C","auditory"
"285","4C.wav",429,"S",NA,"",NA,"None","bi",4,"f006","1C","auditory"
"286","1A.wav",430,"S",NA,"",NA,"None","bi",4,"f006","1C","auditory"
"287","1B.wav",431,"S",NA,"",0.442036086344,"3","bi",4,"f006","1C","auditory"
"288","1C.wav",432,"S",NA,"",NA,"None","bi",4,"f006","1C","auditory"
"289","3A.wav",433,"S",NA,"",NA,"None","bi",4,"f006","1C","auditory"
"290","3B.wav",434,"S",NA,"",NA,"None","bi",4,"f006","1C","auditory"
"291","3C.wav",435,"S",NA,"",NA,"None","bi",4,"f006","1C","auditory"
"292","4A.wav",436,"S",NA,"",NA,"None","bi",4,"f006","1C","auditory"
"293","4B.wav",437,"S",NA,"",0.266858514864,"3","bi",4,"f006","1C","auditory"
"294","4C.wav",438,"S",NA,"",NA,"None","bi",4,"f006","1C","auditory"
"295","3A.wav",439,"S",NA,"",NA,"None","bi",4,"f006","1C","auditory"
"296","3B.wav",440,"S",NA,"",NA,"None","bi",4,"f006","1C","auditory"
"297","3C.wav",441,"S",NA,"",NA,"None","bi",4,"f006","1C","auditory"
"298","2A.wav",442,"S",NA,"",0.366930280172,"3","bi",4,"f006","1C","auditory"
"299","2B.wav",443,"S",NA,"",NA,"None","bi",4,"f006","1C","auditory"
"300","2C.wav",444,"S",NA,"",NA,"None","bi",4,"f006","1C","auditory"
"301","1A.wav",445,"S",NA,"",NA,"None","bi",4,"f006","1C","auditory"
"302","1B.wav",446,"S",NA,"",NA,"None","bi",4,"f006","1C","auditory"
"303","1C.wav",447,"S",NA,"",NA,"None","bi",4,"f006","1C","auditory"
"304","3A.wav",448,"S",NA,"",0.433661477757,"3","bi",4,"f006","1C","auditory"
"305","3B.wav",449,"S",NA,"",NA,"None","bi",4,"f006","1C","auditory"
"306","3C.wav",450,"S",NA,"",NA,"None","bi",4,"f006","1C","auditory"
"307","2A.wav",451,"S",NA,"",NA,"None","bi",4,"f006","1C","auditory"
"308","2B.wav",452,"S",NA,"",NA,"None","bi",4,"f006","1C","auditory"
"309","2C.wav",453,"S",NA,"",NA,"None","bi",4,"f006","1C","auditory"
"310","1A.wav",454,"S",NA,"",NA,"None","bi",4,"f006","1C","auditory"
"311","1B.wav",455,"S",NA,"",0.375381119782,"3","bi",4,"f006","1C","auditory"
"312","1C.wav",456,"S",NA,"",NA,"None","bi",4,"f006","1C","auditory"
"313","4A.wav",457,"S",NA,"",NA,"None","bi",4,"f006","1C","auditory"
"314","4B.wav",458,"S",NA,"",NA,"None","bi",4,"f006","1C","auditory"
"315","4C.wav",459,"S",NA,"",NA,"None","bi",4,"f006","1C","auditory"
"316","1A.wav",460,"S",NA,"",NA,"None","bi",4,"f006","1C","auditory"
"317","1B.wav",461,"S",NA,"",NA,"None","bi",4,"f006","1C","auditory"
"318","1C.wav",462,"S",NA,"",NA,"None","bi",4,"f006","1C","auditory"
"319","3A.wav",463,"S",NA,"",0.308663006581,"3","bi",4,"f006","1C","auditory"
"320","3B.wav",464,"S",NA,"",NA,"None","bi",4,"f006","1C","auditory"
"321","3C.wav",465,"S",NA,"",NA,"None","bi",4,"f006","1C","auditory"
"322","4A.wav",466,"S",NA,"",NA,"None","bi",4,"f006","1C","auditory"
"323","4B.wav",467,"S",NA,"",NA,"None","bi",4,"f006","1C","auditory"
"324","4C.wav",468,"S",NA,"",NA,"None","bi",4,"f006","1C","auditory"
"325","2A.wav",469,"S",NA,"",0.350319302932,"3","bi",4,"f006","1C","auditory"
"326","2B.wav",470,"S",NA,"",NA,"None","bi",4,"f006","1C","auditory"
"327","2C.wav",471,"S",NA,"",NA,"None","bi",4,"f006","1C","auditory"
"328","4A.wav",472,"S",NA,"",NA,"None","bi",4,"f006","1C","auditory"
"329","4B.wav",473,"S",NA,"",NA,"None","bi",4,"f006","1C","auditory"
"330","4C.wav",474,"S",NA,"",NA,"None","bi",4,"f006","1C","auditory"
"331","1A.wav",475,"S",NA,"",NA,"None","bi",4,"f006","1C","auditory"
"332","1B.wav",476,"S",NA,"",NA,"None","bi",4,"f006","1C","auditory"
"333","1C.wav",477,"S",NA,"",0.000285582034849,"3","bi",4,"f006","1C","auditory"
"334","2A.wav",478,"S",NA,"",NA,"None","bi",4,"f006","1C","auditory"
"335","2B.wav",479,"S",NA,"",NA,"None","bi",4,"f006","1C","auditory"
"336","2C.wav",480,"S",NA,"",NA,"None","bi",4,"f006","1C","auditory"
"337","silence.wav",0,"B",NA,"",NA,"None","bi",4,"f006","1C","auditory"
"338","silence.wav",0,"B",NA,"",NA,"None","bi",4,"f006","1C","auditory"
"339","silence.wav",0,"B",NA,"",0.191974290763,"3","bi",4,"f006","1C","auditory"
"340","silence.wav",0,"B",NA,"",NA,"None","bi",4,"f006","1C","auditory"
"341","silence.wav",0,"B",NA,"",NA,"None","bi",4,"f006","1C","auditory"
"342","silence.wav",0,"B",NA,"",NA,"None","bi",4,"f006","1C","auditory"
"343","silence.wav",0,"B",NA,"",NA,"None","bi",4,"f006","1C","auditory"
"344","silence.wav",0,"B",NA,"",NA,"None","bi",4,"f006","1C","auditory"
"345","silence.wav",0,"B",NA,"",NA,"None","bi",4,"f006","1C","auditory"
"346","silence.wav",0,"B",NA,"",NA,"None","bi",4,"f006","1C","auditory"
"347","silence.wav",0,"B",NA,"",NA,"None","bi",4,"f006","1C","auditory"
"348","silence.wav",0,"B",NA,"",NA,"None","bi",4,"f006","1C","auditory"
"349","silence.wav",0,"B",NA,"",NA,"None","bi",4,"f006","1C","auditory"
"350","silence.wav",0,"B",NA,"",NA,"None","bi",4,"f006","1C","auditory"
"351","silence.wav",0,"B",NA,"",NA,"None","bi",4,"f006","1C","auditory"
"352","silence.wav",0,"B",NA,"",NA,"None","bi",4,"f006","1C","auditory"
"353","silence.wav",0,"B",NA,"",NA,"None","bi",4,"f006","1C","auditory"
"354","silence.wav",0,"B",NA,"",NA,"None","bi",4,"f006","1C","auditory"
"355","silence.wav",0,"B",NA,"",NA,"None","bi",4,"f006","1C","auditory"
"356","silence.wav",0,"B",NA,"",NA,"None","bi",4,"f006","1C","auditory"
"357","silence.wav",0,"B",NA,"",NA,"None","bi",4,"f006","1C","auditory"
"358","silence.wav",0,"B",NA,"",NA,"None","bi",4,"f006","1C","auditory"
"359","silence.wav",0,"B",NA,"",NA,"None","bi",4,"f006","1C","auditory"
"360","silence.wav",0,"B",NA,"",NA,"None","bi",4,"f006","1C","auditory"
"361","pa.wav",385,"R",NA,"None",NA,"","bi",4,"f006","1C","auditory"
"362","pi.wav",386,"R",NA,"None",NA,"","bi",4,"f006","1C","auditory"
"363","da.wav",387,"R",0.0336033942294,"3",NA,"","bi",4,"f006","1C","auditory"
"364","ta.wav",388,"R",NA,"None",NA,"","bi",4,"f006","1C","auditory"
"365","bi.wav",389,"R",NA,"None",NA,"","bi",4,"f006","1C","auditory"
"366","ta.wav",390,"R",NA,"None",NA,"","bi",4,"f006","1C","auditory"
"367","du.wav",391,"R",NA,"None",NA,"","bi",4,"f006","1C","auditory"
"368","tu.wav",392,"R",NA,"None",NA,"","bi",4,"f006","1C","auditory"
"369","tu.wav",393,"R",NA,"None",NA,"","bi",4,"f006","1C","auditory"
"370","bu.wav",394,"R",0.400364429981,"3",NA,"","bi",4,"f006","1C","auditory"
"371","ti.wav",395,"R",NA,"None",NA,"","bi",4,"f006","1C","auditory"
"372","ba.wav",396,"R",NA,"None",NA,"","bi",4,"f006","1C","auditory"
"373","bi.wav",397,"R",NA,"None",NA,"","bi",4,"f006","1C","auditory"
"374","bu.wav",398,"R",NA,"None",NA,"","bi",4,"f006","1C","auditory"
"375","pu.wav",399,"R",NA,"None",NA,"","bi",4,"f006","1C","auditory"
"376","bi.wav",400,"R",NA,"None",NA,"","bi",4,"f006","1C","auditory"
"377","ti.wav",401,"R",NA,"None",NA,"","bi",4,"f006","1C","auditory"
"378","da.wav",402,"R",0.025228785642,"3",NA,"","bi",4,"f006","1C","auditory"
"379","pa.wav",403,"R",NA,"None",NA,"","bi",4,"f006","1C","auditory"
"380","du.wav",404,"R",NA,"None",NA,"","bi",4,"f006","1C","auditory"
"381","pi.wav",405,"R",NA,"None",NA,"","bi",4,"f006","1C","auditory"
"382","pi.wav",406,"R",NA,"None",NA,"","bi",4,"f006","1C","auditory"
"383","tu.wav",407,"R",NA,"None",NA,"","bi",4,"f006","1C","auditory"
"384","di.wav",408,"R",NA,"None",NA,"","bi",4,"f006","1C","auditory"
"385","ba.wav",409,"R",NA,"None",NA,"","bi",4,"f006","1C","auditory"
"386","ti.wav",410,"R",NA,"None",NA,"","bi",4,"f006","1C","auditory"
"387","pa.wav",411,"R",NA,"None",NA,"","bi",4,"f006","1C","auditory"
"388","tu.wav",412,"R",NA,"None",NA,"","bi",4,"f006","1C","auditory"
"389","bi.wav",413,"R",NA,"None",NA,"","bi",4,"f006","1C","auditory"
"390","du.wav",414,"R",NA,"None",NA,"","bi",4,"f006","1C","auditory"
"391","ti.wav",415,"R",NA,"None",NA,"","bi",4,"f006","1C","auditory"
"392","pa.wav",416,"R",NA,"None",NA,"","bi",4,"f006","1C","auditory"
"393","pu.wav",417,"R",NA,"None",NA,"","bi",4,"f006","1C","auditory"
"394","ta.wav",418,"R",NA,"None",NA,"","bi",4,"f006","1C","auditory"
"395","bu.wav",419,"R",NA,"None",NA,"","bi",4,"f006","1C","auditory"
"396","pi.wav",420,"R",NA,"None",NA,"","bi",4,"f006","1C","auditory"
"397","da.wav",421,"R",NA,"None",NA,"","bi",4,"f006","1C","auditory"
"398","da.wav",422,"R",NA,"None",NA,"","bi",4,"f006","1C","auditory"
"399","ba.wav",423,"R",NA,"None",NA,"","bi",4,"f006","1C","auditory"
"400","pu.wav",424,"R",NA,"None",NA,"","bi",4,"f006","1C","auditory"
"401","pu.wav",425,"R",NA,"None",NA,"","bi",4,"f006","1C","auditory"
"402","di.wav",426,"R",NA,"None",NA,"","bi",4,"f006","1C","auditory"
"403","di.wav",427,"R",NA,"None",NA,"","bi",4,"f006","1C","auditory"
"404","ta.wav",428,"R",NA,"None",NA,"","bi",4,"f006","1C","auditory"
"405","di.wav",429,"R",0.258574075124,"3",NA,"","bi",4,"f006","1C","auditory"
"406","du.wav",430,"R",NA,"None",NA,"","bi",4,"f006","1C","auditory"
"407","bu.wav",431,"R",NA,"None",NA,"","bi",4,"f006","1C","auditory"
"408","ba.wav",432,"R",NA,"None",NA,"","bi",4,"f006","1C","auditory"
"409","tu.wav",433,"R",NA,"None",NA,"","bi",4,"f006","1C","auditory"
"410","ba.wav",434,"R",NA,"None",NA,"","bi",4,"f006","1C","auditory"
"411","di.wav",435,"R",NA,"None",NA,"","bi",4,"f006","1C","auditory"
"412","pi.wav",436,"R",0.308745495509,"3",NA,"","bi",4,"f006","1C","auditory"
"413","bi.wav",437,"R",NA,"None",NA,"","bi",4,"f006","1C","auditory"
"414","bi.wav",438,"R",NA,"None",NA,"","bi",4,"f006","1C","auditory"
"415","pu.wav",439,"R",NA,"None",NA,"","bi",4,"f006","1C","auditory"
"416","da.wav",440,"R",NA,"None",NA,"","bi",4,"f006","1C","auditory"
"417","ti.wav",441,"R",NA,"None",NA,"","bi",4,"f006","1C","auditory"
"418","di.wav",442,"R",NA,"None",NA,"","bi",4,"f006","1C","auditory"
"419","pi.wav",443,"R",NA,"None",NA,"","bi",4,"f006","1C","auditory"
"420","tu.wav",444,"R",NA,"None",NA,"","bi",4,"f006","1C","auditory"
"421","da.wav",445,"R",NA,"None",NA,"","bi",4,"f006","1C","auditory"
"422","tu.wav",446,"R",NA,"None",NA,"","bi",4,"f006","1C","auditory"
"423","pu.wav",447,"R",NA,"None",NA,"","bi",4,"f006","1C","auditory"
"424","bu.wav",448,"R",NA,"None",NA,"","bi",4,"f006","1C","auditory"
"425","ba.wav",449,"R",NA,"None",NA,"","bi",4,"f006","1C","auditory"
"426","pa.wav",450,"R",NA,"None",NA,"","bi",4,"f006","1C","auditory"
"427","bu.wav",451,"R",NA,"None",NA,"","bi",4,"f006","1C","auditory"
"428","du.wav",452,"R",NA,"None",NA,"","bi",4,"f006","1C","auditory"
"429","pi.wav",453,"R",NA,"None",NA,"","bi",4,"f006","1C","auditory"
"430","bi.wav",454,"R",NA,"None",NA,"","bi",4,"f006","1C","auditory"
"431","pa.wav",455,"R",NA,"None",NA,"","bi",4,"f006","1C","auditory"
"432","ta.wav",456,"R",0.150244892284,"3",NA,"","bi",4,"f006","1C","auditory"
"433","bu.wav",457,"R",NA,"None",NA,"","bi",4,"f006","1C","auditory"
"434","ba.wav",458,"R",NA,"None",NA,"","bi",4,"f006","1C","auditory"
"435","pu.wav",459,"R",NA,"None",NA,"","bi",4,"f006","1C","auditory"
"436","da.wav",460,"R",NA,"None",NA,"","bi",4,"f006","1C","auditory"
"437","ti.wav",461,"R",NA,"None",NA,"","bi",4,"f006","1C","auditory"
"438","pa.wav",462,"R",NA,"None",NA,"","bi",4,"f006","1C","auditory"
"439","du.wav",463,"R",NA,"None",NA,"","bi",4,"f006","1C","auditory"
"440","ba.wav",464,"R",0.42539239797,"3",NA,"","bi",4,"f006","1C","auditory"
"441","ta.wav",465,"R",NA,"None",NA,"","bi",4,"f006","1C","auditory"
"442","du.wav",466,"R",NA,"None",NA,"","bi",4,"f006","1C","auditory"
"443","da.wav",467,"R",NA,"None",NA,"","bi",4,"f006","1C","auditory"
"444","pa.wav",468,"R",NA,"None",NA,"","bi",4,"f006","1C","auditory"
"445","ta.wav",469,"R",NA,"None",NA,"","bi",4,"f006","1C","auditory"
"446","di.wav",470,"R",NA,"None",NA,"","bi",4,"f006","1C","auditory"
"447","pu.wav",471,"R",NA,"None",NA,"","bi",4,"f006","1C","auditory"
"448","di.wav",472,"R",NA,"None",NA,"","bi",4,"f006","1C","auditory"
"449","bu.wav",473,"R",NA,"None",NA,"","bi",4,"f006","1C","auditory"
"450","ti.wav",474,"R",NA,"None",NA,"","bi",4,"f006","1C","auditory"
"451","pi.wav",475,"R",NA,"None",NA,"","bi",4,"f006","1C","auditory"
"452","bi.wav",476,"R",NA,"None",NA,"","bi",4,"f006","1C","auditory"
"453","tu.wav",477,"R",NA,"None",NA,"","bi",4,"f006","1C","auditory"
"454","ta.wav",478,"R",NA,"None",NA,"","bi",4,"f006","1C","auditory"
"455","ti.wav",479,"R",NA,"None",NA,"","bi",4,"f006","1C","auditory"
"456","du.wav",480,"R",NA,"None",NA,"","bi",4,"f006","1C","auditory"
"457","silence.wav",0,"B",0.0336184697808,"3",NA,"","bi",4,"f006","1C","auditory"
"458","silence.wav",0,"B",NA,"None",NA,"","bi",4,"f006","1C","auditory"
"459","silence.wav",0,"B",NA,"None",NA,"","bi",4,"f006","1C","auditory"
"460","silence.wav",0,"B",NA,"None",NA,"","bi",4,"f006","1C","auditory"
"461","silence.wav",0,"B",NA,"None",NA,"","bi",4,"f006","1C","auditory"
"462","silence.wav",0,"B",NA,"None",NA,"","bi",4,"f006","1C","auditory"
"463","silence.wav",0,"B",NA,"None",NA,"","bi",4,"f006","1C","auditory"
"464","silence.wav",0,"B",NA,"None",NA,"","bi",4,"f006","1C","auditory"
"465","silence.wav",0,"B",NA,"None",NA,"","bi",4,"f006","1C","auditory"
"466","silence.wav",0,"B",NA,"None",NA,"","bi",4,"f006","1C","auditory"
"467","silence.wav",0,"B",NA,"None",NA,"","bi",4,"f006","1C","auditory"
"468","silence.wav",0,"B",NA,"None",NA,"","bi",4,"f006","1C","auditory"
"469","silence.wav",0,"B",NA,"None",NA,"","bi",4,"f006","1C","auditory"
"470","silence.wav",0,"B",NA,"None",NA,"","bi",4,"f006","1C","auditory"
"471","silence.wav",0,"B",NA,"None",NA,"","bi",4,"f006","1C","auditory"
"472","silence.wav",0,"B",NA,"None",NA,"","bi",4,"f006","1C","auditory"
"473","silence.wav",0,"B",NA,"None",NA,"","bi",4,"f006","1C","auditory"
"474","silence.wav",0,"B",NA,"None",NA,"","bi",4,"f006","1C","auditory"
"475","silence.wav",0,"B",NA,"None",NA,"","bi",4,"f006","1C","auditory"
"476","silence.wav",0,"B",NA,"None",NA,"","bi",4,"f006","1C","auditory"
"477","silence.wav",0,"B",NA,"None",NA,"","bi",4,"f006","1C","auditory"
"478","silence.wav",0,"B",NA,"None",NA,"","bi",4,"f006","1C","auditory"
"479","silence.wav",0,"B",NA,"None",NA,"","bi",4,"f006","1C","auditory"
"480","silence.wav",0,"B",NA,"None",NA,"","bi",4,"f006","1C","auditory"
"481","3A.wav",481,"S",NA,"",NA,"None","bi",4,"f006","1C","auditory"
"482","3B.wav",482,"S",NA,"",NA,"None","bi",4,"f006","1C","auditory"
"483","3C.wav",483,"S",NA,"",NA,"None","bi",4,"f006","1C","auditory"
"484","2A.wav",484,"S",NA,"",NA,"None","bi",4,"f006","1C","auditory"
"485","2B.wav",485,"S",NA,"",0.425359402434,"3","bi",4,"f006","1C","auditory"
"486","2C.wav",486,"S",NA,"",NA,"None","bi",4,"f006","1C","auditory"
"487","1A.wav",487,"S",NA,"",NA,"None","bi",4,"f006","1C","auditory"
"488","1B.wav",488,"S",NA,"",NA,"None","bi",4,"f006","1C","auditory"
"489","1C.wav",489,"S",NA,"",NA,"None","bi",4,"f006","1C","auditory"
"490","4A.wav",490,"S",NA,"",0.375290097611,"3","bi",4,"f006","1C","auditory"
"491","4B.wav",491,"S",NA,"",NA,"None","bi",4,"f006","1C","auditory"
"492","4C.wav",492,"S",NA,"",NA,"None","bi",4,"f006","1C","auditory"
"493","2A.wav",493,"S",NA,"",NA,"None","bi",4,"f006","1C","auditory"
"494","2B.wav",494,"S",NA,"",NA,"None","bi",4,"f006","1C","auditory"
"495","2C.wav",495,"S",NA,"",0.233672400413,"3","bi",4,"f006","1C","auditory"
"496","3A.wav",496,"S",NA,"",NA,"None","bi",4,"f006","1C","auditory"
"497","3B.wav",497,"S",NA,"",NA,"None","bi",4,"f006","1C","auditory"
"498","3C.wav",498,"S",NA,"",NA,"None","bi",4,"f006","1C","auditory"
"499","1A.wav",499,"S",NA,"",NA,"None","bi",4,"f006","1C","auditory"
"500","1B.wav",500,"S",NA,"",NA,"None","bi",4,"f006","1C","auditory"
"501","1C.wav",501,"S",NA,"",NA,"None","bi",4,"f006","1C","auditory"
"502","4A.wav",502,"S",NA,"",0.358635600423,"3","bi",4,"f006","1C","auditory"
"503","4B.wav",503,"S",NA,"",NA,"None","bi",4,"f006","1C","auditory"
"504","4C.wav",504,"S",NA,"",NA,"None","bi",4,"f006","1C","auditory"
"505","3A.wav",505,"S",NA,"",NA,"None","bi",4,"f006","1C","auditory"
"506","3B.wav",506,"S",NA,"",NA,"None","bi",4,"f006","1C","auditory"
"507","3C.wav",507,"S",NA,"",NA,"None","bi",4,"f006","1C","auditory"
"508","4A.wav",508,"S",NA,"",0.367058280041,"3","bi",4,"f006","1C","auditory"
"509","4B.wav",509,"S",NA,"",NA,"None","bi",4,"f006","1C","auditory"
"510","4C.wav",510,"S",NA,"",NA,"None","bi",4,"f006","1C","auditory"
"511","2A.wav",511,"S",NA,"",0.275351736695,"3","bi",4,"f006","1C","auditory"
"512","2B.wav",512,"S",NA,"",NA,"None","bi",4,"f006","1C","auditory"
"513","2C.wav",513,"S",NA,"",NA,"None","bi",4,"f006","1C","auditory"
"514","1A.wav",514,"S",NA,"",0.342025476566,"3","bi",4,"f006","1C","auditory"
"515","1B.wav",515,"S",NA,"",NA,"None","bi",4,"f006","1C","auditory"
"516","1C.wav",516,"S",NA,"",NA,"None","bi",4,"f006","1C","auditory"
"517","2A.wav",517,"S",NA,"",0.442016459652,"3","bi",4,"f006","1C","auditory"
"518","2B.wav",518,"S",NA,"",NA,"None","bi",4,"f006","1C","auditory"
"519","2C.wav",519,"S",NA,"",NA,"None","bi",4,"f006","1C","auditory"
"520","4A.wav",520,"S",NA,"",0.417027744988,"3","bi",4,"f006","1C","auditory"
"521","4B.wav",521,"S",NA,"",NA,"None","bi",4,"f006","1C","auditory"
"522","4C.wav",522,"S",NA,"",NA,"None","bi",4,"f006","1C","auditory"
"523","3A.wav",523,"S",NA,"",NA,"None","bi",4,"f006","1C","auditory"
"524","3B.wav",524,"S",NA,"",NA,"None","bi",4,"f006","1C","auditory"
"525","3C.wav",525,"S",NA,"",0.417004704999,"3","bi",4,"f006","1C","auditory"
"526","1A.wav",526,"S",NA,"",NA,"None","bi",4,"f006","1C","auditory"
"527","1B.wav",527,"S",NA,"",NA,"None","bi",4,"f006","1C","auditory"
"528","1C.wav",528,"S",NA,"",NA,"None","bi",4,"f006","1C","auditory"
"529","2A.wav",529,"S",NA,"",NA,"None","bi",4,"f006","1C","auditory"
"530","2B.wav",530,"S",NA,"",NA,"None","bi",4,"f006","1C","auditory"
"531","2C.wav",531,"S",NA,"",NA,"None","bi",4,"f006","1C","auditory"
"532","3A.wav",532,"S",NA,"",NA,"None","bi",4,"f006","1C","auditory"
"533","3B.wav",533,"S",NA,"",NA,"None","bi",4,"f006","1C","auditory"
"534","3C.wav",534,"S",NA,"",NA,"None","bi",4,"f006","1C","auditory"
"535","4A.wav",535,"S",NA,"",0.375330204261,"3","bi",4,"f006","1C","auditory"
"536","4B.wav",536,"S",NA,"",NA,"None","bi",4,"f006","1C","auditory"
"537","4C.wav",537,"S",NA,"",NA,"None","bi",4,"f006","1C","auditory"
"538","2A.wav",538,"S",NA,"",NA,"None","bi",4,"f006","1C","auditory"
"539","2B.wav",539,"S",NA,"",NA,"None","bi",4,"f006","1C","auditory"
"540","2C.wav",540,"S",NA,"",NA,"None","bi",4,"f006","1C","auditory"
"541","3A.wav",541,"S",NA,"",NA,"None","bi",4,"f006","1C","auditory"
"542","3B.wav",542,"S",NA,"",NA,"None","bi",4,"f006","1C","auditory"
"543","3C.wav",543,"S",NA,"",NA,"None","bi",4,"f006","1C","auditory"
"544","4A.wav",544,"S",NA,"",NA,"None","bi",4,"f006","1C","auditory"
"545","4B.wav",545,"S",NA,"",NA,"None","bi",4,"f006","1C","auditory"
"546","4C.wav",546,"S",NA,"",NA,"None","bi",4,"f006","1C","auditory"
"547","1A.wav",547,"S",NA,"",NA,"None","bi",4,"f006","1C","auditory"
"548","1B.wav",548,"S",NA,"",NA,"None","bi",4,"f006","1C","auditory"
"549","1C.wav",549,"S",NA,"",NA,"None","bi",4,"f006","1C","auditory"
"550","2A.wav",550,"S",NA,"",0.317092512967,"3","bi",4,"f006","1C","auditory"
"551","2B.wav",551,"S",NA,"",NA,"None","bi",4,"f006","1C","auditory"
"552","2C.wav",552,"S",NA,"",NA,"None","bi",4,"f006","1C","auditory"
"553","1A.wav",553,"S",NA,"",NA,"None","bi",4,"f006","1C","auditory"
"554","1B.wav",554,"S",NA,"",NA,"None","bi",4,"f006","1C","auditory"
"555","1C.wav",555,"S",NA,"",NA,"None","bi",4,"f006","1C","auditory"
"556","4A.wav",556,"S",NA,"",0.308638828865,"3","bi",4,"f006","1C","auditory"
"557","4B.wav",557,"S",NA,"",NA,"None","bi",4,"f006","1C","auditory"
"558","4C.wav",558,"S",NA,"",NA,"None","bi",4,"f006","1C","auditory"
"559","3A.wav",559,"S",NA,"",NA,"None","bi",4,"f006","1C","auditory"
"560","3B.wav",560,"S",NA,"",NA,"None","bi",4,"f006","1C","auditory"
"561","3C.wav",561,"S",NA,"",NA,"None","bi",4,"f006","1C","auditory"
"562","1A.wav",562,"S",NA,"",NA,"None","bi",4,"f006","1C","auditory"
"563","1B.wav",563,"S",NA,"",NA,"None","bi",4,"f006","1C","auditory"
"564","1C.wav",564,"S",NA,"",NA,"None","bi",4,"f006","1C","auditory"
"565","4A.wav",565,"S",NA,"",NA,"None","bi",4,"f006","1C","auditory"
"566","4B.wav",566,"S",NA,"",NA,"None","bi",4,"f006","1C","auditory"
"567","4C.wav",567,"S",NA,"",NA,"None","bi",4,"f006","1C","auditory"
"568","2A.wav",568,"S",NA,"",NA,"None","bi",4,"f006","1C","auditory"
"569","2B.wav",569,"S",NA,"",0.0753012194182,"3","bi",4,"f006","1C","auditory"
"570","2C.wav",570,"S",NA,"",NA,"None","bi",4,"f006","1C","auditory"
"571","3A.wav",571,"S",NA,"",NA,"None","bi",4,"f006","1C","auditory"
"572","3B.wav",572,"S",NA,"",NA,"None","bi",4,"f006","1C","auditory"
"573","3C.wav",573,"S",NA,"",NA,"None","bi",4,"f006","1C","auditory"
"574","1A.wav",574,"S",NA,"",NA,"None","bi",4,"f006","1C","auditory"
"575","1B.wav",575,"S",NA,"",NA,"None","bi",4,"f006","1C","auditory"
"576","1C.wav",576,"S",NA,"",NA,"None","bi",4,"f006","1C","auditory"
"577","silence.wav",0,"B",NA,"",NA,"None","bi",4,"f006","1C","auditory"
"578","silence.wav",0,"B",NA,"",NA,"None","bi",4,"f006","1C","auditory"
"579","silence.wav",0,"B",NA,"",NA,"None","bi",4,"f006","1C","auditory"
"580","silence.wav",0,"B",NA,"",NA,"None","bi",4,"f006","1C","auditory"
"581","silence.wav",0,"B",NA,"",NA,"None","bi",4,"f006","1C","auditory"
"582","silence.wav",0,"B",NA,"",NA,"None","bi",4,"f006","1C","auditory"
"583","silence.wav",0,"B",NA,"",NA,"None","bi",4,"f006","1C","auditory"
"584","silence.wav",0,"B",NA,"",NA,"None","bi",4,"f006","1C","auditory"
"585","silence.wav",0,"B",NA,"",NA,"None","bi",4,"f006","1C","auditory"
"586","silence.wav",0,"B",NA,"",NA,"None","bi",4,"f006","1C","auditory"
"587","silence.wav",0,"B",NA,"",NA,"None","bi",4,"f006","1C","auditory"
"588","silence.wav",0,"B",NA,"",NA,"None","bi",4,"f006","1C","auditory"
"589","silence.wav",0,"B",NA,"",NA,"None","bi",4,"f006","1C","auditory"
"590","silence.wav",0,"B",NA,"",NA,"None","bi",4,"f006","1C","auditory"
"591","silence.wav",0,"B",NA,"",NA,"None","bi",4,"f006","1C","auditory"
"592","silence.wav",0,"B",NA,"",NA,"None","bi",4,"f006","1C","auditory"
"593","silence.wav",0,"B",NA,"",NA,"None","bi",4,"f006","1C","auditory"
"594","silence.wav",0,"B",NA,"",NA,"None","bi",4,"f006","1C","auditory"
"595","silence.wav",0,"B",NA,"",NA,"None","bi",4,"f006","1C","auditory"
"596","silence.wav",0,"B",NA,"",NA,"None","bi",4,"f006","1C","auditory"
"597","silence.wav",0,"B",NA,"",NA,"None","bi",4,"f006","1C","auditory"
"598","silence.wav",0,"B",NA,"",NA,"None","bi",4,"f006","1C","auditory"
"599","silence.wav",0,"B",NA,"",NA,"None","bi",4,"f006","1C","auditory"
"600","silence.wav",0,"B",NA,"",NA,"None","bi",4,"f006","1C","auditory"
"601","tu.wav",481,"R",NA,"None",NA,"","bi",4,"f006","1C","auditory"
"602","bi.wav",482,"R",NA,"None",NA,"","bi",4,"f006","1C","auditory"
"603","ta.wav",483,"R",0.191963197489,"3",NA,"","bi",4,"f006","1C","auditory"
"604","ti.wav",484,"R",NA,"None",NA,"","bi",4,"f006","1C","auditory"
"605","pa.wav",485,"R",NA,"None",NA,"","bi",4,"f006","1C","auditory"
"606","du.wav",486,"R",0.366922884597,"3",NA,"","bi",4,"f006","1C","auditory"
"607","du.wav",487,"R",NA,"None",NA,"","bi",4,"f006","1C","auditory"
"608","pi.wav",488,"R",NA,"None",NA,"","bi",4,"f006","1C","auditory"
"609","bu.wav",489,"R",NA,"None",NA,"","bi",4,"f006","1C","auditory"
"610","ba.wav",490,"R",0.236646265374,"3",NA,"","bi",4,"f006","1C","auditory"
"611","ti.wav",491,"R",NA,"None",NA,"","bi",4,"f006","1C","auditory"
"612","da.wav",492,"R",NA,"None",NA,"","bi",4,"f006","1C","auditory"
"613","pu.wav",493,"R",NA,"None",NA,"","bi",4,"f006","1C","auditory"
"614","pa.wav",494,"R",NA,"None",NA,"","bi",4,"f006","1C","auditory"
"615","ba.wav",495,"R",NA,"None",NA,"","bi",4,"f006","1C","auditory"
"616","pi.wav",496,"R",NA,"None",NA,"","bi",4,"f006","1C","auditory"
"617","tu.wav",497,"R",NA,"None",NA,"","bi",4,"f006","1C","auditory"
"618","ta.wav",498,"R",NA,"None",NA,"","bi",4,"f006","1C","auditory"
"619","di.wav",499,"R",NA,"None",NA,"","bi",4,"f006","1C","auditory"
"620","bi.wav",500,"R",NA,"None",NA,"","bi",4,"f006","1C","auditory"
"621","da.wav",501,"R",0.350358840718,"3",NA,"","bi",4,"f006","1C","auditory"
"622","di.wav",502,"R",NA,"None",NA,"","bi",4,"f006","1C","auditory"
"623","pu.wav",503,"R",NA,"None",NA,"","bi",4,"f006","1C","auditory"
"624","bu.wav",504,"R",NA,"None",NA,"","bi",4,"f006","1C","auditory"
"625","ta.wav",505,"R",NA,"None",NA,"","bi",4,"f006","1C","auditory"
"626","di.wav",506,"R",NA,"None",NA,"","bi",4,"f006","1C","auditory"
"627","bi.wav",507,"R",NA,"None",NA,"","bi",4,"f006","1C","auditory"
"628","bu.wav",508,"R",NA,"None",NA,"","bi",4,"f006","1C","auditory"
"629","du.wav",509,"R",0.241953142337,"3",NA,"","bi",4,"f006","1C","auditory"
"630","da.wav",510,"R",NA,"None",NA,"","bi",4,"f006","1C","auditory"
"631","ti.wav",511,"R",NA,"None",NA,"","bi",4,"f006","1C","auditory"
"632","pu.wav",512,"R",NA,"None",NA,"","bi",4,"f006","1C","auditory"
"633","di.wav",513,"R",NA,"None",NA,"","bi",4,"f006","1C","auditory"
"634","ba.wav",514,"R",NA,"None",NA,"","bi",4,"f006","1C","auditory"
"635","ta.wav",515,"R",NA,"None",NA,"","bi",4,"f006","1C","auditory"
"636","bi.wav",516,"R",NA,"None",NA,"","bi",4,"f006","1C","auditory"
"637","pi.wav",517,"R",0.0419427317102,"3",NA,"","bi",4,"f006","1C","auditory"
"638","da.wav",518,"R",NA,"None",NA,"","bi",4,"f006","1C","auditory"
"639","pa.wav",519,"R",NA,"None",NA,"","bi",4,"f006","1C","auditory"
"640","pi.wav",520,"R",NA,"None",NA,"","bi",4,"f006","1C","auditory"
"641","du.wav",521,"R",NA,"None",NA,"","bi",4,"f006","1C","auditory"
"642","tu.wav",522,"R",NA,"None",NA,"","bi",4,"f006","1C","auditory"
"643","pa.wav",523,"R",NA,"None",NA,"","bi",4,"f006","1C","auditory"
"644","tu.wav",524,"R",NA,"None",NA,"","bi",4,"f006","1C","auditory"
"645","ti.wav",525,"R",NA,"None",NA,"","bi",4,"f006","1C","auditory"
"646","ba.wav",526,"R",NA,"None",NA,"","bi",4,"f006","1C","auditory"
"647","bu.wav",527,"R",NA,"None",NA,"","bi",4,"f006","1C","auditory"
"648","pu.wav",528,"R",NA,"None",NA,"","bi",4,"f006","1C","auditory"
"649","pa.wav",529,"R",NA,"None",NA,"","bi",4,"f006","1C","auditory"
"650","da.wav",530,"R",NA,"None",NA,"","bi",4,"f006","1C","auditory"
"651","pi.wav",531,"R",NA,"None",NA,"","bi",4,"f006","1C","auditory"
"652","tu.wav",532,"R",NA,"None",NA,"","bi",4,"f006","1C","auditory"
"653","du.wav",533,"R",NA,"None",NA,"","bi",4,"f006","1C","auditory"
"654","bi.wav",534,"R",NA,"None",NA,"","bi",4,"f006","1C","auditory"
"655","ta.wav",535,"R",0.133732901653,"3",NA,"","bi",4,"f006","1C","auditory"
"656","bu.wav",536,"R",NA,"None",NA,"","bi",4,"f006","1C","auditory"
"657","du.wav",537,"R",NA,"None",NA,"","bi",4,"f006","1C","auditory"
"658","ti.wav",538,"R",NA,"None",NA,"","bi",4,"f006","1C","auditory"
"659","bu.wav",539,"R",NA,"None",NA,"","bi",4,"f006","1C","auditory"
"660","da.wav",540,"R",NA,"None",NA,"","bi",4,"f006","1C","auditory"
"661","ta.wav",541,"R",NA,"None",NA,"","bi",4,"f006","1C","auditory"
"662","tu.wav",542,"R",NA,"None",NA,"","bi",4,"f006","1C","auditory"
"663","pu.wav",543,"R",NA,"None",NA,"","bi",4,"f006","1C","auditory"
"664","pi.wav",544,"R",0.10866027599,"3",NA,"","bi",4,"f006","1C","auditory"
"665","ti.wav",545,"R",NA,"None",NA,"","bi",4,"f006","1C","auditory"
"666","di.wav",546,"R",NA,"None",NA,"","bi",4,"f006","1C","auditory"
"667","bu.wav",547,"R",NA,"None",NA,"","bi",4,"f006","1C","auditory"
"668","pa.wav",548,"R",NA,"None",NA,"","bi",4,"f006","1C","auditory"
"669","bi.wav",549,"R",NA,"None",NA,"","bi",4,"f006","1C","auditory"
"670","da.wav",550,"R",NA,"None",NA,"","bi",4,"f006","1C","auditory"
"671","ba.wav",551,"R",NA,"None",NA,"","bi",4,"f006","1C","auditory"
"672","pa.wav",552,"R",NA,"None",NA,"","bi",4,"f006","1C","auditory"
"673","tu.wav",553,"R",NA,"None",NA,"","bi",4,"f006","1C","auditory"
"674","du.wav",554,"R",NA,"None",NA,"","bi",4,"f006","1C","auditory"
"675","ti.wav",555,"R",NA,"None",NA,"","bi",4,"f006","1C","auditory"
"676","di.wav",556,"R",NA,"None",NA,"","bi",4,"f006","1C","auditory"
"677","bi.wav",557,"R",NA,"None",NA,"","bi",4,"f006","1C","auditory"
"678","bu.wav",558,"R",NA,"None",NA,"","bi",4,"f006","1C","auditory"
"679","di.wav",559,"R",NA,"None",NA,"","bi",4,"f006","1C","auditory"
"680","da.wav",560,"R",NA,"None",NA,"","bi",4,"f006","1C","auditory"
"681","ta.wav",561,"R",NA,"None",NA,"","bi",4,"f006","1C","auditory"
"682","pu.wav",562,"R",NA,"None",NA,"","bi",4,"f006","1C","auditory"
"683","ti.wav",563,"R",NA,"None",NA,"","bi",4,"f006","1C","auditory"
"684","ba.wav",564,"R",NA,"None",NA,"","bi",4,"f006","1C","auditory"
"685","pa.wav",565,"R",NA,"None",NA,"","bi",4,"f006","1C","auditory"
"686","pu.wav",566,"R",NA,"None",NA,"","bi",4,"f006","1C","auditory"
"687","du.wav",567,"R",NA,"None",NA,"","bi",4,"f006","1C","auditory"
"688","pi.wav",568,"R",NA,"None",NA,"","bi",4,"f006","1C","auditory"
"689","tu.wav",569,"R",NA,"None",NA,"","bi",4,"f006","1C","auditory"
"690","ba.wav",570,"R",NA,"None",NA,"","bi",4,"f006","1C","auditory"
"691","ba.wav",571,"R",NA,"None",NA,"","bi",4,"f006","1C","auditory"
"692","pu.wav",572,"R",NA,"None",NA,"","bi",4,"f006","1C","auditory"
"693","di.wav",573,"R",NA,"None",NA,"","bi",4,"f006","1C","auditory"
"694","pi.wav",574,"R",NA,"None",NA,"","bi",4,"f006","1C","auditory"
"695","bi.wav",575,"R",0.316994948545,"3",NA,"","bi",4,"f006","1C","auditory"
"696","ta.wav",576,"R",NA,"None",NA,"","bi",4,"f006","1C","auditory"
"697","",NA,"",NA,"",NA,"","bi",4,"f006","1C","auditory"
"698","",NA,"",NA,"",NA,"","bi",4,"f006","1C","auditory"
"699","",NA,"",NA,"",NA,"","bi",4,"f006","1C","auditory"
"700","",NA,"",NA,"",NA,"","bi",4,"f006","1C","auditory"
"701","",NA,"",NA,"",NA,"","bi",4,"f006","1C","auditory"
"702","",NA,"",NA,"",NA,"","bi",4,"f006","1C","auditory"
"703","",NA,"",NA,"",NA,"","bi",4,"f006","1C","auditory"
"704","",NA,"",NA,"",NA,"","bi",4,"f006","1C","auditory"
"705","",NA,"",NA,"",NA,"","bi",4,"f006","1C","auditory"
"706","",NA,"",NA,"",NA,"","bi",4,"f006","1C","auditory"
"707","",NA,"",NA,"",NA,"","bi",4,"f006","1C","auditory"
"708","",NA,"",NA,"",NA,"","bi",4,"f006","1C","auditory"
"709","",NA,"",NA,"",NA,"","bi",4,"f006","1C","auditory"
"710","",NA,"",NA,"",NA,"","bi",4,"f006","1C","auditory"
"711","",NA,"",NA,"",NA,"","bi",4,"f006","1C","auditory"
"712","",NA,"",NA,"",NA,"","bi",4,"f006","1C","auditory"
