"","soundFile","trialnum","condition","sound_block_key_resp.rt","sound_block_key_resp.keys","tone_block_key_resp.rt","tone_block_key_resp.keys","starget","Run","PartID","ttarget","expName"
"1","3A.wav",481,"S",NA,"",NA,"None","bi",4,"f008","1C","auditory"
"2","3B.wav",482,"S",NA,"",NA,"None","bi",4,"f008","1C","auditory"
"3","3C.wav",483,"S",NA,"",NA,"None","bi",4,"f008","1C","auditory"
"4","2A.wav",484,"S",NA,"",NA,"None","bi",4,"f008","1C","auditory"
"5","2B.wav",485,"S",NA,"",NA,"None","bi",4,"f008","1C","auditory"
"6","2C.wav",486,"S",NA,"",0.100312405149,"3","bi",4,"f008","1C","auditory"
"7","1A.wav",487,"S",NA,"",0.300387669122,"3","bi",4,"f008","1C","auditory"
"8","1B.wav",488,"S",NA,"",NA,"None","bi",4,"f008","1C","auditory"
"9","1C.wav",489,"S",NA,"",NA,"None","bi",4,"f008","1C","auditory"
"10","4A.wav",490,"S",NA,"",0.027144802385,"3","bi",4,"f008","1C","auditory"
"11","4B.wav",491,"S",NA,"",0.400410510018,"3","bi",4,"f008","1C","auditory"
"12","4C.wav",492,"S",NA,"",NA,"None","bi",4,"f008","1C","auditory"
"13","2A.wav",493,"S",NA,"",NA,"None","bi",4,"f008","1C","auditory"
"14","2B.wav",494,"S",NA,"",NA,"None","bi",4,"f008","1C","auditory"
"15","2C.wav",495,"S",NA,"",NA,"None","bi",4,"f008","1C","auditory"
"16","3A.wav",496,"S",NA,"",0.283652674174,"3","bi",4,"f008","1C","auditory"
"17","3B.wav",497,"S",NA,"",NA,"None","bi",4,"f008","1C","auditory"
"18","3C.wav",498,"S",NA,"",0.250263750902,"3","bi",4,"f008","1C","auditory"
"19","1A.wav",499,"S",NA,"",NA,"None","bi",4,"f008","1C","auditory"
"20","1B.wav",500,"S",NA,"",NA,"None","bi",4,"f008","1C","auditory"
"21","1C.wav",501,"S",NA,"",NA,"None","bi",4,"f008","1C","auditory"
"22","4A.wav",502,"S",NA,"",0.141961590271,"3","bi",4,"f008","1C","auditory"
"23","4B.wav",503,"S",NA,"",NA,"None","bi",4,"f008","1C","auditory"
"24","4C.wav",504,"S",NA,"",0.283752229763,"3","bi",4,"f008","1C","auditory"
"25","3A.wav",505,"S",NA,"",NA,"None","bi",4,"f008","1C","auditory"
"26","3B.wav",506,"S",NA,"",0.14200368803,"3","bi",4,"f008","1C","auditory"
"27","3C.wav",507,"S",NA,"",NA,"None","bi",4,"f008","1C","auditory"
"28","4A.wav",508,"S",NA,"",NA,"None","bi",4,"f008","1C","auditory"
"29","4B.wav",509,"S",NA,"",NA,"None","bi",4,"f008","1C","auditory"
"30","4C.wav",510,"S",NA,"",NA,"None","bi",4,"f008","1C","auditory"
"31","2A.wav",511,"S",NA,"",0.416967158322,"3","bi",4,"f008","1C","auditory"
"32","2B.wav",512,"S",NA,"",NA,"None","bi",4,"f008","1C","auditory"
"33","2C.wav",513,"S",NA,"",NA,"None","bi",4,"f008","1C","auditory"
"34","1A.wav",514,"S",NA,"",NA,"None","bi",4,"f008","1C","auditory"
"35","1B.wav",515,"S",NA,"",0.358737147064,"3","bi",4,"f008","1C","auditory"
"36","1C.wav",516,"S",NA,"",NA,"None","bi",4,"f008","1C","auditory"
"37","2A.wav",517,"S",NA,"",NA,"None","bi",4,"f008","1C","auditory"
"38","2B.wav",518,"S",NA,"",NA,"None","bi",4,"f008","1C","auditory"
"39","2C.wav",519,"S",NA,"",NA,"None","bi",4,"f008","1C","auditory"
"40","4A.wav",520,"S",NA,"",0.275289158919,"3","bi",4,"f008","1C","auditory"
"41","4B.wav",521,"S",NA,"",NA,"None","bi",4,"f008","1C","auditory"
"42","4C.wav",522,"S",NA,"",NA,"None","bi",4,"f008","1C","auditory"
"43","3A.wav",523,"S",NA,"",NA,"None","bi",4,"f008","1C","auditory"
"44","3B.wav",524,"S",NA,"",0.110523670446,"3","bi",4,"f008","1C","auditory"
"45","3C.wav",525,"S",NA,"",NA,"None","bi",4,"f008","1C","auditory"
"46","1A.wav",526,"S",NA,"",NA,"None","bi",4,"f008","1C","auditory"
"47","1B.wav",527,"S",NA,"",NA,"None","bi",4,"f008","1C","auditory"
"48","1C.wav",528,"S",NA,"",NA,"None","bi",4,"f008","1C","auditory"
"49","2A.wav",529,"S",NA,"",0.100358769647,"3","bi",4,"f008","1C","auditory"
"50","2B.wav",530,"S",NA,"",NA,"None","bi",4,"f008","1C","auditory"
"51","2C.wav",531,"S",NA,"",0.0611589341424,"3","bi",4,"f008","1C","auditory"
"52","3A.wav",532,"S",NA,"",NA,"None","bi",4,"f008","1C","auditory"
"53","3B.wav",533,"S",NA,"",0.0769410406938,"3","bi",4,"f008","1C","auditory"
"54","3C.wav",534,"S",NA,"",NA,"None","bi",4,"f008","1C","auditory"
"55","4A.wav",535,"S",NA,"",NA,"None","bi",4,"f008","1C","auditory"
"56","4B.wav",536,"S",NA,"",NA,"None","bi",4,"f008","1C","auditory"
"57","4C.wav",537,"S",NA,"",NA,"None","bi",4,"f008","1C","auditory"
"58","2A.wav",538,"S",NA,"",NA,"None","bi",4,"f008","1C","auditory"
"59","2B.wav",539,"S",NA,"",0.400328021147,"3","bi",4,"f008","1C","auditory"
"60","2C.wav",540,"S",NA,"",NA,"None","bi",4,"f008","1C","auditory"
"61","3A.wav",541,"S",NA,"",0.300443135784,"3","bi",4,"f008","1C","auditory"
"62","3B.wav",542,"S",NA,"",NA,"None","bi",4,"f008","1C","auditory"
"63","3C.wav",543,"S",NA,"",0.300424931338,"3","bi",4,"f008","1C","auditory"
"64","4A.wav",544,"S",NA,"",NA,"None","bi",4,"f008","1C","auditory"
"65","4B.wav",545,"S",NA,"",NA,"None","bi",4,"f008","1C","auditory"
"66","4C.wav",546,"S",NA,"",NA,"None","bi",4,"f008","1C","auditory"
"67","1A.wav",547,"S",NA,"",0.425373909064,"3","bi",4,"f008","1C","auditory"
"68","1B.wav",548,"S",NA,"",NA,"None","bi",4,"f008","1C","auditory"
"69","1C.wav",549,"S",NA,"",NA,"None","bi",4,"f008","1C","auditory"
"70","2A.wav",550,"S",NA,"",0.217006240971,"3","bi",4,"f008","1C","auditory"
"71","2B.wav",551,"S",NA,"",NA,"None","bi",4,"f008","1C","auditory"
"72","2C.wav",552,"S",NA,"",0.200404366013,"3","bi",4,"f008","1C","auditory"
"73","1A.wav",553,"S",NA,"",NA,"None","bi",4,"f008","1C","auditory"
"74","1B.wav",554,"S",NA,"",NA,"None","bi",4,"f008","1C","auditory"
"75","1C.wav",555,"S",NA,"",NA,"None","bi",4,"f008","1C","auditory"
"76","4A.wav",556,"S",NA,"",0.18764419551,"3","bi",4,"f008","1C","auditory"
"77","4B.wav",557,"S",NA,"",NA,"None","bi",4,"f008","1C","auditory"
"78","4C.wav",558,"S",NA,"",NA,"None","bi",4,"f008","1C","auditory"
"79","3A.wav",559,"S",NA,"",NA,"None","bi",4,"f008","1C","auditory"
"80","3B.wav",560,"S",NA,"",0.108664827072,"3","bi",4,"f008","1C","auditory"
"81","3C.wav",561,"S",NA,"",NA,"None","bi",4,"f008","1C","auditory"
"82","1A.wav",562,"S",NA,"",NA,"None","bi",4,"f008","1C","auditory"
"83","1B.wav",563,"S",NA,"",NA,"None","bi",4,"f008","1C","auditory"
"84","1C.wav",564,"S",NA,"",NA,"None","bi",4,"f008","1C","auditory"
"85","4A.wav",565,"S",NA,"",0.150317994528,"3","bi",4,"f008","1C","auditory"
"86","4B.wav",566,"S",NA,"",NA,"None","bi",4,"f008","1C","auditory"
"87","4C.wav",567,"S",NA,"",NA,"None","bi",4,"f008","1C","auditory"
"88","2A.wav",568,"S",NA,"",NA,"None","bi",4,"f008","1C","auditory"
"89","2B.wav",569,"S",NA,"",NA,"None","bi",4,"f008","1C","auditory"
"90","2C.wav",570,"S",NA,"",0.0655334027251,"3","bi",4,"f008","1C","auditory"
"91","3A.wav",571,"S",NA,"",NA,"None","bi",4,"f008","1C","auditory"
"92","3B.wav",572,"S",NA,"",0.167134340503,"3","bi",4,"f008","1C","auditory"
"93","3C.wav",573,"S",NA,"",NA,"None","bi",4,"f008","1C","auditory"
"94","1A.wav",574,"S",NA,"",NA,"None","bi",4,"f008","1C","auditory"
"95","1B.wav",575,"S",NA,"",NA,"None","bi",4,"f008","1C","auditory"
"96","1C.wav",576,"S",NA,"",NA,"None","bi",4,"f008","1C","auditory"
"97","silence.wav",0,"B",NA,"",0.150147043518,"3","bi",4,"f008","1C","auditory"
"98","silence.wav",0,"B",NA,"",NA,"None","bi",4,"f008","1C","auditory"
"99","silence.wav",0,"B",NA,"",NA,"None","bi",4,"f008","1C","auditory"
"100","silence.wav",0,"B",NA,"",NA,"None","bi",4,"f008","1C","auditory"
"101","silence.wav",0,"B",NA,"",NA,"None","bi",4,"f008","1C","auditory"
"102","silence.wav",0,"B",NA,"",NA,"None","bi",4,"f008","1C","auditory"
"103","silence.wav",0,"B",NA,"",NA,"None","bi",4,"f008","1C","auditory"
"104","silence.wav",0,"B",NA,"",NA,"None","bi",4,"f008","1C","auditory"
"105","silence.wav",0,"B",NA,"",NA,"None","bi",4,"f008","1C","auditory"
"106","silence.wav",0,"B",NA,"",NA,"None","bi",4,"f008","1C","auditory"
"107","silence.wav",0,"B",NA,"",NA,"None","bi",4,"f008","1C","auditory"
"108","silence.wav",0,"B",NA,"",NA,"None","bi",4,"f008","1C","auditory"
"109","silence.wav",0,"B",NA,"",NA,"None","bi",4,"f008","1C","auditory"
"110","silence.wav",0,"B",NA,"",NA,"None","bi",4,"f008","1C","auditory"
"111","silence.wav",0,"B",NA,"",NA,"None","bi",4,"f008","1C","auditory"
"112","silence.wav",0,"B",NA,"",NA,"None","bi",4,"f008","1C","auditory"
"113","silence.wav",0,"B",NA,"",NA,"None","bi",4,"f008","1C","auditory"
"114","silence.wav",0,"B",NA,"",NA,"None","bi",4,"f008","1C","auditory"
"115","silence.wav",0,"B",NA,"",NA,"None","bi",4,"f008","1C","auditory"
"116","silence.wav",0,"B",NA,"",NA,"None","bi",4,"f008","1C","auditory"
"117","silence.wav",0,"B",NA,"",NA,"None","bi",4,"f008","1C","auditory"
"118","silence.wav",0,"B",NA,"",NA,"None","bi",4,"f008","1C","auditory"
"119","silence.wav",0,"B",NA,"",NA,"None","bi",4,"f008","1C","auditory"
"120","silence.wav",0,"B",NA,"",NA,"None","bi",4,"f008","1C","auditory"
"121","3A.wav",289,"S",NA,"",NA,"None","bi",4,"f008","1C","auditory"
"122","3B.wav",290,"S",NA,"",NA,"None","bi",4,"f008","1C","auditory"
"123","3C.wav",291,"S",NA,"",NA,"None","bi",4,"f008","1C","auditory"
"124","1A.wav",292,"S",NA,"",NA,"None","bi",4,"f008","1C","auditory"
"125","1B.wav",293,"S",NA,"",NA,"None","bi",4,"f008","1C","auditory"
"126","1C.wav",294,"S",NA,"",NA,"None","bi",4,"f008","1C","auditory"
"127","4A.wav",295,"S",NA,"",0.150356109953,"3","bi",4,"f008","1C","auditory"
"128","4B.wav",296,"S",NA,"",NA,"None","bi",4,"f008","1C","auditory"
"129","4C.wav",297,"S",NA,"",NA,"None","bi",4,"f008","1C","auditory"
"130","3A.wav",298,"S",NA,"",NA,"None","bi",4,"f008","1C","auditory"
"131","3B.wav",299,"S",NA,"",0.0169471903937,"3","bi",4,"f008","1C","auditory"
"132","3C.wav",300,"S",NA,"",NA,"None","bi",4,"f008","1C","auditory"
"133","2A.wav",301,"S",NA,"",NA,"None","bi",4,"f008","1C","auditory"
"134","2B.wav",302,"S",NA,"",0.275407772162,"3","bi",4,"f008","1C","auditory"
"135","2C.wav",303,"S",NA,"",NA,"None","bi",4,"f008","1C","auditory"
"136","1A.wav",304,"S",NA,"",0.258852261701,"3","bi",4,"f008","1C","auditory"
"137","1B.wav",305,"S",NA,"",NA,"None","bi",4,"f008","1C","auditory"
"138","1C.wav",306,"S",NA,"",0.266979119275,"3","bi",4,"f008","1C","auditory"
"139","4A.wav",307,"S",NA,"",NA,"None","bi",4,"f008","1C","auditory"
"140","4B.wav",308,"S",NA,"",NA,"None","bi",4,"f008","1C","auditory"
"141","4C.wav",309,"S",NA,"",NA,"None","bi",4,"f008","1C","auditory"
"142","3A.wav",310,"S",NA,"",NA,"None","bi",4,"f008","1C","auditory"
"143","3B.wav",311,"S",NA,"",0.0670184862101,"3","bi",4,"f008","1C","auditory"
"144","3C.wav",312,"S",NA,"",NA,"None","bi",4,"f008","1C","auditory"
"145","2A.wav",313,"S",NA,"",NA,"None","bi",4,"f008","1C","auditory"
"146","2B.wav",314,"S",NA,"",0.292068811599,"3","bi",4,"f008","1C","auditory"
"147","2C.wav",315,"S",NA,"",NA,"None","bi",4,"f008","1C","auditory"
"148","1A.wav",316,"S",NA,"",NA,"None","bi",4,"f008","1C","auditory"
"149","1B.wav",317,"S",NA,"",NA,"None","bi",4,"f008","1C","auditory"
"150","1C.wav",318,"S",NA,"",NA,"None","bi",4,"f008","1C","auditory"
"151","2A.wav",319,"S",NA,"",0.133645008435,"3","bi",4,"f008","1C","auditory"
"152","2B.wav",320,"S",NA,"",0.325362161617,"3","bi",4,"f008","1C","auditory"
"153","2C.wav",321,"S",NA,"",NA,"None","bi",4,"f008","1C","auditory"
"154","4A.wav",322,"S",NA,"",NA,"None","bi",4,"f008","1C","auditory"
"155","4B.wav",323,"S",NA,"",0.0920407653321,"3","bi",4,"f008","1C","auditory"
"156","4C.wav",324,"S",NA,"",NA,"None","bi",4,"f008","1C","auditory"
"157","3A.wav",325,"S",NA,"",NA,"None","bi",4,"f008","1C","auditory"
"158","3B.wav",326,"S",NA,"",0.283700460917,"3","bi",4,"f008","1C","auditory"
"159","3C.wav",327,"S",NA,"",NA,"None","bi",4,"f008","1C","auditory"
"160","4A.wav",328,"S",NA,"",NA,"None","bi",4,"f008","1C","auditory"
"161","4B.wav",329,"S",NA,"",0.400500678923,"3","bi",4,"f008","1C","auditory"
"162","4C.wav",330,"S",NA,"",NA,"None","bi",4,"f008","1C","auditory"
"163","3A.wav",331,"S",NA,"",NA,"None","bi",4,"f008","1C","auditory"
"164","3B.wav",332,"S",NA,"",0.0669610286132,"3","bi",4,"f008","1C","auditory"
"165","3C.wav",333,"S",NA,"",NA,"None","bi",4,"f008","1C","auditory"
"166","2A.wav",334,"S",NA,"",NA,"None","bi",4,"f008","1C","auditory"
"167","2B.wav",335,"S",NA,"",NA,"None","bi",4,"f008","1C","auditory"
"168","2C.wav",336,"S",NA,"",0.0752730594249,"3","bi",4,"f008","1C","auditory"
"169","1A.wav",337,"S",NA,"",0.300333624706,"3","bi",4,"f008","1C","auditory"
"170","1B.wav",338,"S",NA,"",NA,"None","bi",4,"f008","1C","auditory"
"171","1C.wav",339,"S",NA,"",NA,"None","bi",4,"f008","1C","auditory"
"172","4A.wav",340,"S",NA,"",0.0821253221948,"3","bi",4,"f008","1C","auditory"
"173","4B.wav",341,"S",NA,"",NA,"None","bi",4,"f008","1C","auditory"
"174","4C.wav",342,"S",NA,"",NA,"None","bi",4,"f008","1C","auditory"
"175","3A.wav",343,"S",NA,"",NA,"None","bi",4,"f008","1C","auditory"
"176","3B.wav",344,"S",NA,"",0.108655440505,"3","bi",4,"f008","1C","auditory"
"177","3C.wav",345,"S",NA,"",NA,"None","bi",4,"f008","1C","auditory"
"178","2A.wav",346,"S",NA,"",NA,"None","bi",4,"f008","1C","auditory"
"179","2B.wav",347,"S",NA,"",NA,"None","bi",4,"f008","1C","auditory"
"180","2C.wav",348,"S",NA,"",0.0419487050967,"3","bi",4,"f008","1C","auditory"
"181","1A.wav",349,"S",NA,"",0.358666889253,"3","bi",4,"f008","1C","auditory"
"182","1B.wav",350,"S",NA,"",NA,"None","bi",4,"f008","1C","auditory"
"183","1C.wav",351,"S",NA,"",NA,"None","bi",4,"f008","1C","auditory"
"184","2A.wav",352,"S",NA,"",0.0752941083629,"3","bi",4,"f008","1C","auditory"
"185","2B.wav",353,"S",NA,"",NA,"None","bi",4,"f008","1C","auditory"
"186","2C.wav",354,"S",NA,"",0.1837441799,"3","bi",4,"f008","1C","auditory"
"187","3A.wav",355,"S",NA,"",NA,"None","bi",4,"f008","1C","auditory"
"188","3B.wav",356,"S",NA,"",0.0252717366675,"3","bi",4,"f008","1C","auditory"
"189","3C.wav",357,"S",NA,"",NA,"None","bi",4,"f008","1C","auditory"
"190","4A.wav",358,"S",NA,"",NA,"None","bi",4,"f008","1C","auditory"
"191","4B.wav",359,"S",NA,"",NA,"None","bi",4,"f008","1C","auditory"
"192","4C.wav",360,"S",NA,"",NA,"None","bi",4,"f008","1C","auditory"
"193","1A.wav",361,"S",NA,"",NA,"None","bi",4,"f008","1C","auditory"
"194","1B.wav",362,"S",NA,"",NA,"None","bi",4,"f008","1C","auditory"
"195","1C.wav",363,"S",NA,"",NA,"None","bi",4,"f008","1C","auditory"
"196","3A.wav",364,"S",NA,"",0.116971169016,"3","bi",4,"f008","1C","auditory"
"197","3B.wav",365,"S",NA,"",NA,"None","bi",4,"f008","1C","auditory"
"198","3C.wav",366,"S",NA,"",NA,"None","bi",4,"f008","1C","auditory"
"199","2A.wav",367,"S",NA,"",NA,"None","bi",4,"f008","1C","auditory"
"200","2B.wav",368,"S",NA,"",NA,"None","bi",4,"f008","1C","auditory"
"201","2C.wav",369,"S",NA,"",0.0588284820551,"3","bi",4,"f008","1C","auditory"
"202","4A.wav",370,"S",NA,"",0.350249614101,"3","bi",4,"f008","1C","auditory"
"203","4B.wav",371,"S",NA,"",NA,"None","bi",4,"f008","1C","auditory"
"204","4C.wav",372,"S",NA,"",NA,"None","bi",4,"f008","1C","auditory"
"205","1A.wav",373,"S",NA,"",NA,"None","bi",4,"f008","1C","auditory"
"206","1B.wav",374,"S",NA,"",NA,"None","bi",4,"f008","1C","auditory"
"207","1C.wav",375,"S",NA,"",NA,"None","bi",4,"f008","1C","auditory"
"208","2A.wav",376,"S",NA,"",0.358718089294,"3","bi",4,"f008","1C","auditory"
"209","2B.wav",377,"S",NA,"",NA,"None","bi",4,"f008","1C","auditory"
"210","2C.wav",378,"S",NA,"",0.325374961598,"3","bi",4,"f008","1C","auditory"
"211","4A.wav",382,"S",NA,"",NA,"None","bi",4,"f008","1C","auditory"
"212","4B.wav",383,"S",NA,"",0.322920776322,"3","bi",4,"f008","1C","auditory"
"213","4C.wav",384,"S",NA,"",NA,"None","bi",4,"f008","1C","auditory"
"214","1A.wav",388,"S",NA,"",NA,"None","bi",4,"f008","1C","auditory"
"215","1B.wav",389,"S",NA,"",0.258561844006,"3","bi",4,"f008","1C","auditory"
"216","1C.wav",390,"S",NA,"",NA,"None","bi",4,"f008","1C","auditory"
"217","silence.wav",0,"B",NA,"",NA,"None","bi",4,"f008","1C","auditory"
"218","silence.wav",0,"B",NA,"",NA,"None","bi",4,"f008","1C","auditory"
"219","silence.wav",0,"B",NA,"",NA,"None","bi",4,"f008","1C","auditory"
"220","silence.wav",0,"B",NA,"",NA,"None","bi",4,"f008","1C","auditory"
"221","silence.wav",0,"B",NA,"",NA,"None","bi",4,"f008","1C","auditory"
"222","silence.wav",0,"B",NA,"",NA,"None","bi",4,"f008","1C","auditory"
"223","silence.wav",0,"B",NA,"",NA,"None","bi",4,"f008","1C","auditory"
"224","silence.wav",0,"B",NA,"",NA,"None","bi",4,"f008","1C","auditory"
"225","silence.wav",0,"B",NA,"",NA,"None","bi",4,"f008","1C","auditory"
"226","silence.wav",0,"B",NA,"",NA,"None","bi",4,"f008","1C","auditory"
"227","silence.wav",0,"B",NA,"",NA,"None","bi",4,"f008","1C","auditory"
"228","silence.wav",0,"B",NA,"",NA,"None","bi",4,"f008","1C","auditory"
"229","silence.wav",0,"B",NA,"",NA,"None","bi",4,"f008","1C","auditory"
"230","silence.wav",0,"B",NA,"",NA,"None","bi",4,"f008","1C","auditory"
"231","silence.wav",0,"B",NA,"",NA,"None","bi",4,"f008","1C","auditory"
"232","silence.wav",0,"B",NA,"",NA,"None","bi",4,"f008","1C","auditory"
"233","silence.wav",0,"B",NA,"",NA,"None","bi",4,"f008","1C","auditory"
"234","silence.wav",0,"B",NA,"",NA,"None","bi",4,"f008","1C","auditory"
"235","silence.wav",0,"B",NA,"",NA,"None","bi",4,"f008","1C","auditory"
"236","silence.wav",0,"B",NA,"",NA,"None","bi",4,"f008","1C","auditory"
"237","silence.wav",0,"B",NA,"",NA,"None","bi",4,"f008","1C","auditory"
"238","silence.wav",0,"B",NA,"",NA,"None","bi",4,"f008","1C","auditory"
"239","silence.wav",0,"B",NA,"",NA,"None","bi",4,"f008","1C","auditory"
"240","silence.wav",0,"B",NA,"",NA,"None","bi",4,"f008","1C","auditory"
"241","pa.wav",385,"R",NA,"None",NA,"","bi",4,"f008","1C","auditory"
"242","pi.wav",386,"R",NA,"None",NA,"","bi",4,"f008","1C","auditory"
"243","da.wav",387,"R",NA,"None",NA,"","bi",4,"f008","1C","auditory"
"244","ta.wav",388,"R",NA,"None",NA,"","bi",4,"f008","1C","auditory"
"245","bi.wav",389,"R",NA,"None",NA,"","bi",4,"f008","1C","auditory"
"246","ta.wav",390,"R",0.269292789046,"3",NA,"","bi",4,"f008","1C","auditory"
"247","du.wav",391,"R",NA,"None",NA,"","bi",4,"f008","1C","auditory"
"248","tu.wav",392,"R",NA,"None",NA,"","bi",4,"f008","1C","auditory"
"249","tu.wav",393,"R",NA,"None",NA,"","bi",4,"f008","1C","auditory"
"250","bu.wav",394,"R",NA,"None",NA,"","bi",4,"f008","1C","auditory"
"251","ti.wav",395,"R",NA,"None",NA,"","bi",4,"f008","1C","auditory"
"252","ba.wav",396,"R",NA,"None",NA,"","bi",4,"f008","1C","auditory"
"253","bi.wav",397,"R",NA,"None",NA,"","bi",4,"f008","1C","auditory"
"254","bu.wav",398,"R",0.376944425632,"3",NA,"","bi",4,"f008","1C","auditory"
"255","pu.wav",399,"R",NA,"None",NA,"","bi",4,"f008","1C","auditory"
"256","bi.wav",400,"R",NA,"None",NA,"","bi",4,"f008","1C","auditory"
"257","ti.wav",401,"R",NA,"None",NA,"","bi",4,"f008","1C","auditory"
"258","da.wav",402,"R",0.000295253237709,"3",NA,"","bi",4,"f008","1C","auditory"
"259","pa.wav",403,"R",NA,"None",NA,"","bi",4,"f008","1C","auditory"
"260","du.wav",404,"R",NA,"None",NA,"","bi",4,"f008","1C","auditory"
"261","pi.wav",405,"R",NA,"None",NA,"","bi",4,"f008","1C","auditory"
"262","pi.wav",406,"R",NA,"None",NA,"","bi",4,"f008","1C","auditory"
"263","tu.wav",407,"R",NA,"None",NA,"","bi",4,"f008","1C","auditory"
"264","di.wav",408,"R",NA,"None",NA,"","bi",4,"f008","1C","auditory"
"265","ba.wav",409,"R",NA,"None",NA,"","bi",4,"f008","1C","auditory"
"266","ti.wav",410,"R",NA,"None",NA,"","bi",4,"f008","1C","auditory"
"267","pa.wav",411,"R",NA,"None",NA,"","bi",4,"f008","1C","auditory"
"268","tu.wav",412,"R",NA,"None",NA,"","bi",4,"f008","1C","auditory"
"269","bi.wav",413,"R",NA,"None",NA,"","bi",4,"f008","1C","auditory"
"270","du.wav",414,"R",0.191972299712,"3",NA,"","bi",4,"f008","1C","auditory"
"271","ti.wav",415,"R",NA,"None",NA,"","bi",4,"f008","1C","auditory"
"272","pa.wav",416,"R",NA,"None",NA,"","bi",4,"f008","1C","auditory"
"273","pu.wav",417,"R",NA,"None",NA,"","bi",4,"f008","1C","auditory"
"274","ta.wav",418,"R",NA,"None",NA,"","bi",4,"f008","1C","auditory"
"275","bu.wav",419,"R",NA,"None",NA,"","bi",4,"f008","1C","auditory"
"276","pi.wav",420,"R",NA,"None",NA,"","bi",4,"f008","1C","auditory"
"277","da.wav",421,"R",NA,"None",NA,"","bi",4,"f008","1C","auditory"
"278","da.wav",422,"R",NA,"None",NA,"","bi",4,"f008","1C","auditory"
"279","ba.wav",423,"R",NA,"None",NA,"","bi",4,"f008","1C","auditory"
"280","pu.wav",424,"R",NA,"None",NA,"","bi",4,"f008","1C","auditory"
"281","pu.wav",425,"R",NA,"None",NA,"","bi",4,"f008","1C","auditory"
"282","di.wav",426,"R",NA,"None",NA,"","bi",4,"f008","1C","auditory"
"283","di.wav",427,"R",NA,"None",NA,"","bi",4,"f008","1C","auditory"
"284","ta.wav",428,"R",NA,"None",NA,"","bi",4,"f008","1C","auditory"
"285","di.wav",429,"R",NA,"None",NA,"","bi",4,"f008","1C","auditory"
"286","du.wav",430,"R",NA,"None",NA,"","bi",4,"f008","1C","auditory"
"287","bu.wav",431,"R",NA,"None",NA,"","bi",4,"f008","1C","auditory"
"288","ba.wav",432,"R",NA,"None",NA,"","bi",4,"f008","1C","auditory"
"289","tu.wav",433,"R",NA,"None",NA,"","bi",4,"f008","1C","auditory"
"290","ba.wav",434,"R",NA,"None",NA,"","bi",4,"f008","1C","auditory"
"291","di.wav",435,"R",NA,"None",NA,"","bi",4,"f008","1C","auditory"
"292","pi.wav",436,"R",NA,"None",NA,"","bi",4,"f008","1C","auditory"
"293","bi.wav",437,"R",NA,"None",NA,"","bi",4,"f008","1C","auditory"
"294","bi.wav",438,"R",0.267006994691,"3",NA,"","bi",4,"f008","1C","auditory"
"295","pu.wav",439,"R",0.342133280938,"3",NA,"","bi",4,"f008","1C","auditory"
"296","da.wav",440,"R",NA,"None",NA,"","bi",4,"f008","1C","auditory"
"297","ti.wav",441,"R",NA,"None",NA,"","bi",4,"f008","1C","auditory"
"298","di.wav",442,"R",NA,"None",NA,"","bi",4,"f008","1C","auditory"
"299","pi.wav",443,"R",NA,"None",NA,"","bi",4,"f008","1C","auditory"
"300","tu.wav",444,"R",NA,"None",NA,"","bi",4,"f008","1C","auditory"
"301","da.wav",445,"R",NA,"None",NA,"","bi",4,"f008","1C","auditory"
"302","tu.wav",446,"R",NA,"None",NA,"","bi",4,"f008","1C","auditory"
"303","pu.wav",447,"R",NA,"None",NA,"","bi",4,"f008","1C","auditory"
"304","bu.wav",448,"R",NA,"None",NA,"","bi",4,"f008","1C","auditory"
"305","ba.wav",449,"R",NA,"None",NA,"","bi",4,"f008","1C","auditory"
"306","pa.wav",450,"R",NA,"None",NA,"","bi",4,"f008","1C","auditory"
"307","bu.wav",451,"R",NA,"None",NA,"","bi",4,"f008","1C","auditory"
"308","du.wav",452,"R",NA,"None",NA,"","bi",4,"f008","1C","auditory"
"309","pi.wav",453,"R",NA,"None",NA,"","bi",4,"f008","1C","auditory"
"310","bi.wav",454,"R",NA,"None",NA,"","bi",4,"f008","1C","auditory"
"311","pa.wav",455,"R",0.233634000411,"3",NA,"","bi",4,"f008","1C","auditory"
"312","ta.wav",456,"R",NA,"None",NA,"","bi",4,"f008","1C","auditory"
"313","bu.wav",457,"R",NA,"None",NA,"","bi",4,"f008","1C","auditory"
"314","ba.wav",458,"R",NA,"None",NA,"","bi",4,"f008","1C","auditory"
"315","pu.wav",459,"R",NA,"None",NA,"","bi",4,"f008","1C","auditory"
"316","da.wav",460,"R",NA,"None",NA,"","bi",4,"f008","1C","auditory"
"317","ti.wav",461,"R",NA,"None",NA,"","bi",4,"f008","1C","auditory"
"318","pa.wav",462,"R",NA,"None",NA,"","bi",4,"f008","1C","auditory"
"319","du.wav",463,"R",NA,"None",NA,"","bi",4,"f008","1C","auditory"
"320","ba.wav",464,"R",NA,"None",NA,"","bi",4,"f008","1C","auditory"
"321","ta.wav",465,"R",NA,"None",NA,"","bi",4,"f008","1C","auditory"
"322","du.wav",466,"R",NA,"None",NA,"","bi",4,"f008","1C","auditory"
"323","da.wav",467,"R",NA,"None",NA,"","bi",4,"f008","1C","auditory"
"324","pa.wav",468,"R",NA,"None",NA,"","bi",4,"f008","1C","auditory"
"325","ta.wav",469,"R",NA,"None",NA,"","bi",4,"f008","1C","auditory"
"326","di.wav",470,"R",NA,"None",NA,"","bi",4,"f008","1C","auditory"
"327","pu.wav",471,"R",NA,"None",NA,"","bi",4,"f008","1C","auditory"
"328","di.wav",472,"R",NA,"None",NA,"","bi",4,"f008","1C","auditory"
"329","bu.wav",473,"R",NA,"None",NA,"","bi",4,"f008","1C","auditory"
"330","ti.wav",474,"R",NA,"None",NA,"","bi",4,"f008","1C","auditory"
"331","pi.wav",475,"R",NA,"None",NA,"","bi",4,"f008","1C","auditory"
"332","bi.wav",476,"R",NA,"None",NA,"","bi",4,"f008","1C","auditory"
"333","tu.wav",477,"R",0.291994002764,"3",NA,"","bi",4,"f008","1C","auditory"
"334","ta.wav",478,"R",NA,"None",NA,"","bi",4,"f008","1C","auditory"
"335","ti.wav",479,"R",NA,"None",NA,"","bi",4,"f008","1C","auditory"
"336","du.wav",480,"R",NA,"None",NA,"","bi",4,"f008","1C","auditory"
"337","silence.wav",0,"B",NA,"None",NA,"","bi",4,"f008","1C","auditory"
"338","silence.wav",0,"B",NA,"None",NA,"","bi",4,"f008","1C","auditory"
"339","silence.wav",0,"B",NA,"None",NA,"","bi",4,"f008","1C","auditory"
"340","silence.wav",0,"B",NA,"None",NA,"","bi",4,"f008","1C","auditory"
"341","silence.wav",0,"B",NA,"None",NA,"","bi",4,"f008","1C","auditory"
"342","silence.wav",0,"B",NA,"None",NA,"","bi",4,"f008","1C","auditory"
"343","silence.wav",0,"B",NA,"None",NA,"","bi",4,"f008","1C","auditory"
"344","silence.wav",0,"B",NA,"None",NA,"","bi",4,"f008","1C","auditory"
"345","silence.wav",0,"B",NA,"None",NA,"","bi",4,"f008","1C","auditory"
"346","silence.wav",0,"B",NA,"None",NA,"","bi",4,"f008","1C","auditory"
"347","silence.wav",0,"B",NA,"None",NA,"","bi",4,"f008","1C","auditory"
"348","silence.wav",0,"B",NA,"None",NA,"","bi",4,"f008","1C","auditory"
"349","silence.wav",0,"B",NA,"None",NA,"","bi",4,"f008","1C","auditory"
"350","silence.wav",0,"B",NA,"None",NA,"","bi",4,"f008","1C","auditory"
"351","silence.wav",0,"B",NA,"None",NA,"","bi",4,"f008","1C","auditory"
"352","silence.wav",0,"B",NA,"None",NA,"","bi",4,"f008","1C","auditory"
"353","silence.wav",0,"B",NA,"None",NA,"","bi",4,"f008","1C","auditory"
"354","silence.wav",0,"B",NA,"None",NA,"","bi",4,"f008","1C","auditory"
"355","silence.wav",0,"B",NA,"None",NA,"","bi",4,"f008","1C","auditory"
"356","silence.wav",0,"B",NA,"None",NA,"","bi",4,"f008","1C","auditory"
"357","silence.wav",0,"B",NA,"None",NA,"","bi",4,"f008","1C","auditory"
"358","silence.wav",0,"B",NA,"None",NA,"","bi",4,"f008","1C","auditory"
"359","silence.wav",0,"B",NA,"None",NA,"","bi",4,"f008","1C","auditory"
"360","silence.wav",0,"B",NA,"None",NA,"","bi",4,"f008","1C","auditory"
"361","3A.wav",379,"S",NA,"",NA,"None","bi",4,"f008","1C","auditory"
"362","3B.wav",380,"S",NA,"",NA,"None","bi",4,"f008","1C","auditory"
"363","3C.wav",381,"S",NA,"",NA,"None","bi",4,"f008","1C","auditory"
"364","3A.wav",385,"S",NA,"",0.242139168899,"3","bi",4,"f008","1C","auditory"
"365","3B.wav",386,"S",NA,"",NA,"None","bi",4,"f008","1C","auditory"
"366","3C.wav",387,"S",NA,"",NA,"None","bi",4,"f008","1C","auditory"
"367","2A.wav",391,"S",NA,"",NA,"None","bi",4,"f008","1C","auditory"
"368","2B.wav",392,"S",NA,"",NA,"None","bi",4,"f008","1C","auditory"
"369","2C.wav",393,"S",NA,"",0.10863097827,"3","bi",4,"f008","1C","auditory"
"370","4A.wav",394,"S",NA,"",0.358674284769,"3","bi",4,"f008","1C","auditory"
"371","4B.wav",395,"S",NA,"",NA,"None","bi",4,"f008","1C","auditory"
"372","4C.wav",396,"S",NA,"",0.342015236616,"3","bi",4,"f008","1C","auditory"
"373","1A.wav",397,"S",NA,"",NA,"None","bi",4,"f008","1C","auditory"
"374","1B.wav",398,"S",NA,"",NA,"None","bi",4,"f008","1C","auditory"
"375","1C.wav",399,"S",NA,"",NA,"None","bi",4,"f008","1C","auditory"
"376","3A.wav",400,"S",NA,"",0.20869278803,"3","bi",4,"f008","1C","auditory"
"377","3B.wav",401,"S",NA,"",NA,"None","bi",4,"f008","1C","auditory"
"378","3C.wav",402,"S",NA,"",NA,"None","bi",4,"f008","1C","auditory"
"379","4A.wav",403,"S",NA,"",NA,"None","bi",4,"f008","1C","auditory"
"380","4B.wav",404,"S",NA,"",NA,"None","bi",4,"f008","1C","auditory"
"381","4C.wav",405,"S",NA,"",NA,"None","bi",4,"f008","1C","auditory"
"382","2A.wav",406,"S",NA,"",0.442068797303,"3","bi",4,"f008","1C","auditory"
"383","2B.wav",407,"S",NA,"",NA,"None","bi",4,"f008","1C","auditory"
"384","2C.wav",408,"S",NA,"",NA,"None","bi",4,"f008","1C","auditory"
"385","1A.wav",409,"S",NA,"",NA,"None","bi",4,"f008","1C","auditory"
"386","1B.wav",410,"S",NA,"",NA,"None","bi",4,"f008","1C","auditory"
"387","1C.wav",411,"S",NA,"",NA,"None","bi",4,"f008","1C","auditory"
"388","3A.wav",412,"S",NA,"",0.26699874585,"3","bi",4,"f008","1C","auditory"
"389","3B.wav",413,"S",NA,"",NA,"None","bi",4,"f008","1C","auditory"
"390","3C.wav",414,"S",NA,"",0.258751283865,"3","bi",4,"f008","1C","auditory"
"391","1A.wav",415,"S",NA,"",NA,"None","bi",4,"f008","1C","auditory"
"392","1B.wav",416,"S",NA,"",NA,"None","bi",4,"f008","1C","auditory"
"393","1C.wav",417,"S",NA,"",NA,"None","bi",4,"f008","1C","auditory"
"394","2A.wav",418,"S",NA,"",0.28115923563,"3","bi",4,"f008","1C","auditory"
"395","2B.wav",419,"S",NA,"",NA,"None","bi",4,"f008","1C","auditory"
"396","2C.wav",420,"S",NA,"",0.383725292864,"3","bi",4,"f008","1C","auditory"
"397","4A.wav",421,"S",NA,"",NA,"None","bi",4,"f008","1C","auditory"
"398","4B.wav",422,"S",NA,"",0.197809949634,"3","bi",4,"f008","1C","auditory"
"399","4C.wav",423,"S",NA,"",NA,"None","bi",4,"f008","1C","auditory"
"400","2A.wav",424,"S",NA,"",NA,"None","bi",4,"f008","1C","auditory"
"401","2B.wav",425,"S",NA,"",NA,"None","bi",4,"f008","1C","auditory"
"402","2C.wav",426,"S",NA,"",0.0503332691733,"3","bi",4,"f008","1C","auditory"
"403","4A.wav",427,"S",NA,"",NA,"None","bi",4,"f008","1C","auditory"
"404","4B.wav",428,"S",NA,"",0.0608050854644,"3","bi",4,"f008","1C","auditory"
"405","4C.wav",429,"S",NA,"",0.425390406861,"3","bi",4,"f008","1C","auditory"
"406","1A.wav",430,"S",NA,"",NA,"None","bi",4,"f008","1C","auditory"
"407","1B.wav",431,"S",NA,"",NA,"None","bi",4,"f008","1C","auditory"
"408","1C.wav",432,"S",NA,"",NA,"None","bi",4,"f008","1C","auditory"
"409","3A.wav",433,"S",NA,"",0.0835333213909,"3","bi",4,"f008","1C","auditory"
"410","3B.wav",434,"S",NA,"",0.342041974305,"3","bi",4,"f008","1C","auditory"
"411","3C.wav",435,"S",NA,"",NA,"None","bi",4,"f008","1C","auditory"
"412","4A.wav",436,"S",NA,"",NA,"None","bi",4,"f008","1C","auditory"
"413","4B.wav",437,"S",NA,"",NA,"None","bi",4,"f008","1C","auditory"
"414","4C.wav",438,"S",NA,"",NA,"None","bi",4,"f008","1C","auditory"
"415","3A.wav",439,"S",NA,"",NA,"None","bi",4,"f008","1C","auditory"
"416","3B.wav",440,"S",NA,"",NA,"None","bi",4,"f008","1C","auditory"
"417","3C.wav",441,"S",NA,"",NA,"None","bi",4,"f008","1C","auditory"
"418","2A.wav",442,"S",NA,"",NA,"None","bi",4,"f008","1C","auditory"
"419","2B.wav",443,"S",NA,"",NA,"None","bi",4,"f008","1C","auditory"
"420","2C.wav",444,"S",NA,"",0.125279786531,"3","bi",4,"f008","1C","auditory"
"421","1A.wav",445,"S",NA,"",NA,"None","bi",4,"f008","1C","auditory"
"422","1B.wav",446,"S",NA,"",NA,"None","bi",4,"f008","1C","auditory"
"423","1C.wav",447,"S",NA,"",NA,"None","bi",4,"f008","1C","auditory"
"424","3A.wav",448,"S",NA,"",0.10034824512,"3","bi",4,"f008","1C","auditory"
"425","3B.wav",449,"S",NA,"",0.275433087721,"3","bi",4,"f008","1C","auditory"
"426","3C.wav",450,"S",NA,"",NA,"None","bi",4,"f008","1C","auditory"
"427","2A.wav",451,"S",NA,"",NA,"None","bi",4,"f008","1C","auditory"
"428","2B.wav",452,"S",NA,"",NA,"None","bi",4,"f008","1C","auditory"
"429","2C.wav",453,"S",NA,"",0.15873782977,"3","bi",4,"f008","1C","auditory"
"430","1A.wav",454,"S",NA,"",NA,"None","bi",4,"f008","1C","auditory"
"431","1B.wav",455,"S",NA,"",0.0836650191341,"3","bi",4,"f008","1C","auditory"
"432","1C.wav",456,"S",NA,"",NA,"None","bi",4,"f008","1C","auditory"
"433","4A.wav",457,"S",NA,"",0.144250797923,"3","bi",4,"f008","1C","auditory"
"434","4B.wav",458,"S",NA,"",NA,"None","bi",4,"f008","1C","auditory"
"435","4C.wav",459,"S",NA,"",NA,"None","bi",4,"f008","1C","auditory"
"436","1A.wav",460,"S",NA,"",NA,"None","bi",4,"f008","1C","auditory"
"437","1B.wav",461,"S",NA,"",0.150292110047,"3","bi",4,"f008","1C","auditory"
"438","1C.wav",462,"S",NA,"",NA,"None","bi",4,"f008","1C","auditory"
"439","3A.wav",463,"S",NA,"",0.200290872715,"3","bi",4,"f008","1C","auditory"
"440","3B.wav",464,"S",NA,"",0.417042820482,"3","bi",4,"f008","1C","auditory"
"441","3C.wav",465,"S",NA,"",NA,"None","bi",4,"f008","1C","auditory"
"442","4A.wav",466,"S",NA,"",NA,"None","bi",4,"f008","1C","auditory"
"443","4B.wav",467,"S",NA,"",NA,"None","bi",4,"f008","1C","auditory"
"444","4C.wav",468,"S",NA,"",NA,"None","bi",4,"f008","1C","auditory"
"445","2A.wav",469,"S",NA,"",NA,"None","bi",4,"f008","1C","auditory"
"446","2B.wav",470,"S",NA,"",NA,"None","bi",4,"f008","1C","auditory"
"447","2C.wav",471,"S",NA,"",0.108583476045,"3","bi",4,"f008","1C","auditory"
"448","4A.wav",472,"S",NA,"",NA,"None","bi",4,"f008","1C","auditory"
"449","4B.wav",473,"S",NA,"",0.0728055052459,"3","bi",4,"f008","1C","auditory"
"450","4C.wav",474,"S",NA,"",NA,"None","bi",4,"f008","1C","auditory"
"451","1A.wav",475,"S",NA,"",NA,"None","bi",4,"f008","1C","auditory"
"452","1B.wav",476,"S",NA,"",NA,"None","bi",4,"f008","1C","auditory"
"453","1C.wav",477,"S",NA,"",NA,"None","bi",4,"f008","1C","auditory"
"454","2A.wav",478,"S",NA,"",0.117008715752,"3","bi",4,"f008","1C","auditory"
"455","2B.wav",479,"S",NA,"",NA,"None","bi",4,"f008","1C","auditory"
"456","2C.wav",480,"S",NA,"",0.266990212607,"3","bi",4,"f008","1C","auditory"
"457","silence.wav",0,"B",NA,"",NA,"None","bi",4,"f008","1C","auditory"
"458","silence.wav",0,"B",NA,"",NA,"None","bi",4,"f008","1C","auditory"
"459","silence.wav",0,"B",NA,"",NA,"None","bi",4,"f008","1C","auditory"
"460","silence.wav",0,"B",NA,"",NA,"None","bi",4,"f008","1C","auditory"
"461","silence.wav",0,"B",NA,"",NA,"None","bi",4,"f008","1C","auditory"
"462","silence.wav",0,"B",NA,"",NA,"None","bi",4,"f008","1C","auditory"
"463","silence.wav",0,"B",NA,"",NA,"None","bi",4,"f008","1C","auditory"
"464","silence.wav",0,"B",NA,"",NA,"None","bi",4,"f008","1C","auditory"
"465","silence.wav",0,"B",NA,"",NA,"None","bi",4,"f008","1C","auditory"
"466","silence.wav",0,"B",NA,"",NA,"None","bi",4,"f008","1C","auditory"
"467","silence.wav",0,"B",NA,"",NA,"None","bi",4,"f008","1C","auditory"
"468","silence.wav",0,"B",NA,"",NA,"None","bi",4,"f008","1C","auditory"
"469","silence.wav",0,"B",NA,"",NA,"None","bi",4,"f008","1C","auditory"
"470","silence.wav",0,"B",NA,"",NA,"None","bi",4,"f008","1C","auditory"
"471","silence.wav",0,"B",NA,"",NA,"None","bi",4,"f008","1C","auditory"
"472","silence.wav",0,"B",NA,"",NA,"None","bi",4,"f008","1C","auditory"
"473","silence.wav",0,"B",NA,"",NA,"None","bi",4,"f008","1C","auditory"
"474","silence.wav",0,"B",NA,"",NA,"None","bi",4,"f008","1C","auditory"
"475","silence.wav",0,"B",NA,"",NA,"None","bi",4,"f008","1C","auditory"
"476","silence.wav",0,"B",NA,"",NA,"None","bi",4,"f008","1C","auditory"
"477","silence.wav",0,"B",NA,"",NA,"None","bi",4,"f008","1C","auditory"
"478","silence.wav",0,"B",NA,"",NA,"None","bi",4,"f008","1C","auditory"
"479","silence.wav",0,"B",NA,"",NA,"None","bi",4,"f008","1C","auditory"
"480","silence.wav",0,"B",NA,"",NA,"None","bi",4,"f008","1C","auditory"
"481","ba.wav",289,"R",NA,"None",NA,"","bi",4,"f008","1C","auditory"
"482","tu.wav",290,"R",NA,"None",NA,"","bi",4,"f008","1C","auditory"
"483","pi.wav",291,"R",NA,"None",NA,"","bi",4,"f008","1C","auditory"
"484","du.wav",292,"R",NA,"None",NA,"","bi",4,"f008","1C","auditory"
"485","ti.wav",293,"R",NA,"None",NA,"","bi",4,"f008","1C","auditory"
"486","bi.wav",294,"R",NA,"None",NA,"","bi",4,"f008","1C","auditory"
"487","pu.wav",295,"R",0.33367845905,"3",NA,"","bi",4,"f008","1C","auditory"
"488","di.wav",296,"R",NA,"None",NA,"","bi",4,"f008","1C","auditory"
"489","tu.wav",297,"R",NA,"None",NA,"","bi",4,"f008","1C","auditory"
"490","da.wav",298,"R",NA,"None",NA,"","bi",4,"f008","1C","auditory"
"491","da.wav",299,"R",NA,"None",NA,"","bi",4,"f008","1C","auditory"
"492","bi.wav",300,"R",NA,"None",NA,"","bi",4,"f008","1C","auditory"
"493","du.wav",301,"R",0.383762554964,"3",NA,"","bi",4,"f008","1C","auditory"
"494","bu.wav",302,"R",NA,"None",NA,"","bi",4,"f008","1C","auditory"
"495","pa.wav",303,"R",NA,"None",NA,"","bi",4,"f008","1C","auditory"
"496","ti.wav",304,"R",NA,"None",NA,"","bi",4,"f008","1C","auditory"
"497","pi.wav",305,"R",NA,"None",NA,"","bi",4,"f008","1C","auditory"
"498","pa.wav",306,"R",NA,"None",NA,"","bi",4,"f008","1C","auditory"
"499","ta.wav",307,"R",NA,"None",NA,"","bi",4,"f008","1C","auditory"
"500","pa.wav",308,"R",NA,"None",NA,"","bi",4,"f008","1C","auditory"
"501","bu.wav",309,"R",NA,"None",NA,"","bi",4,"f008","1C","auditory"
"502","ta.wav",310,"R",NA,"None",NA,"","bi",4,"f008","1C","auditory"
"503","bu.wav",311,"R",NA,"None",NA,"","bi",4,"f008","1C","auditory"
"504","da.wav",312,"R",NA,"None",NA,"","bi",4,"f008","1C","auditory"
"505","du.wav",337,"R",NA,"None",NA,"","bi",4,"f008","1C","auditory"
"506","ba.wav",338,"R",NA,"None",NA,"","bi",4,"f008","1C","auditory"
"507","ti.wav",339,"R",NA,"None",NA,"","bi",4,"f008","1C","auditory"
"508","bu.wav",340,"R",NA,"None",NA,"","bi",4,"f008","1C","auditory"
"509","bi.wav",341,"R",NA,"None",NA,"","bi",4,"f008","1C","auditory"
"510","ti.wav",342,"R",0.408721971908,"3",NA,"","bi",4,"f008","1C","auditory"
"511","pu.wav",343,"R",NA,"None",NA,"","bi",4,"f008","1C","auditory"
"512","ba.wav",344,"R",NA,"None",NA,"","bi",4,"f008","1C","auditory"
"513","ta.wav",345,"R",NA,"None",NA,"","bi",4,"f008","1C","auditory"
"514","pa.wav",346,"R",NA,"None",NA,"","bi",4,"f008","1C","auditory"
"515","tu.wav",347,"R",NA,"None",NA,"","bi",4,"f008","1C","auditory"
"516","bu.wav",348,"R",NA,"None",NA,"","bi",4,"f008","1C","auditory"
"517","pu.wav",349,"R",NA,"None",NA,"","bi",4,"f008","1C","auditory"
"518","di.wav",350,"R",NA,"None",NA,"","bi",4,"f008","1C","auditory"
"519","pi.wav",351,"R",NA,"None",NA,"","bi",4,"f008","1C","auditory"
"520","du.wav",352,"R",NA,"None",NA,"","bi",4,"f008","1C","auditory"
"521","da.wav",353,"R",NA,"None",NA,"","bi",4,"f008","1C","auditory"
"522","pi.wav",354,"R",NA,"None",NA,"","bi",4,"f008","1C","auditory"
"523","di.wav",355,"R",NA,"None",NA,"","bi",4,"f008","1C","auditory"
"524","tu.wav",356,"R",NA,"None",NA,"","bi",4,"f008","1C","auditory"
"525","pa.wav",357,"R",NA,"None",NA,"","bi",4,"f008","1C","auditory"
"526","ta.wav",358,"R",NA,"None",NA,"","bi",4,"f008","1C","auditory"
"527","da.wav",359,"R",NA,"None",NA,"","bi",4,"f008","1C","auditory"
"528","bi.wav",360,"R",NA,"None",NA,"","bi",4,"f008","1C","auditory"
"529","ba.wav",313,"R",0.392019688035,"3",NA,"","bi",4,"f008","1C","auditory"
"530","di.wav",314,"R",NA,"None",NA,"","bi",4,"f008","1C","auditory"
"531","pu.wav",315,"R",NA,"None",NA,"","bi",4,"f008","1C","auditory"
"532","bu.wav",316,"R",NA,"None",NA,"","bi",4,"f008","1C","auditory"
"533","pu.wav",317,"R",NA,"None",NA,"","bi",4,"f008","1C","auditory"
"534","du.wav",318,"R",NA,"None",NA,"","bi",4,"f008","1C","auditory"
"535","da.wav",319,"R",NA,"None",NA,"","bi",4,"f008","1C","auditory"
"536","pa.wav",320,"R",NA,"None",NA,"","bi",4,"f008","1C","auditory"
"537","da.wav",321,"R",NA,"None",NA,"","bi",4,"f008","1C","auditory"
"538","ti.wav",322,"R",NA,"None",NA,"","bi",4,"f008","1C","auditory"
"539","ti.wav",323,"R",NA,"None",NA,"","bi",4,"f008","1C","auditory"
"540","bu.wav",324,"R",NA,"None",NA,"","bi",4,"f008","1C","auditory"
"541","di.wav",325,"R",NA,"None",NA,"","bi",4,"f008","1C","auditory"
"542","ta.wav",326,"R",NA,"None",NA,"","bi",4,"f008","1C","auditory"
"543","pa.wav",327,"R",NA,"None",NA,"","bi",4,"f008","1C","auditory"
"544","ta.wav",328,"R",NA,"None",NA,"","bi",4,"f008","1C","auditory"
"545","ba.wav",329,"R",NA,"None",NA,"","bi",4,"f008","1C","auditory"
"546","di.wav",330,"R",NA,"None",NA,"","bi",4,"f008","1C","auditory"
"547","tu.wav",331,"R",NA,"None",NA,"","bi",4,"f008","1C","auditory"
"548","pu.wav",332,"R",NA,"None",NA,"","bi",4,"f008","1C","auditory"
"549","bi.wav",333,"R",NA,"None",NA,"","bi",4,"f008","1C","auditory"
"550","ba.wav",334,"R",0.333706618985,"3",NA,"","bi",4,"f008","1C","auditory"
"551","du.wav",335,"R",NA,"None",NA,"","bi",4,"f008","1C","auditory"
"552","pi.wav",336,"R",NA,"None",NA,"","bi",4,"f008","1C","auditory"
"553","di.wav",361,"R",NA,"None",NA,"","bi",4,"f008","1C","auditory"
"554","pu.wav",362,"R",NA,"None",NA,"","bi",4,"f008","1C","auditory"
"555","ta.wav",363,"R",NA,"None",NA,"","bi",4,"f008","1C","auditory"
"556","pi.wav",364,"R",NA,"None",NA,"","bi",4,"f008","1C","auditory"
"557","ti.wav",365,"R",NA,"None",NA,"","bi",4,"f008","1C","auditory"
"558","pa.wav",366,"R",NA,"None",NA,"","bi",4,"f008","1C","auditory"
"559","pu.wav",367,"R",NA,"None",NA,"","bi",4,"f008","1C","auditory"
"560","di.wav",368,"R",NA,"None",NA,"","bi",4,"f008","1C","auditory"
"561","bu.wav",369,"R",NA,"None",NA,"","bi",4,"f008","1C","auditory"
"562","ta.wav",370,"R",NA,"None",NA,"","bi",4,"f008","1C","auditory"
"563","bi.wav",371,"R",NA,"None",NA,"","bi",4,"f008","1C","auditory"
"564","bu.wav",372,"R",0.375322524225,"3",NA,"","bi",4,"f008","1C","auditory"
"565","du.wav",373,"R",NA,"None",NA,"","bi",4,"f008","1C","auditory"
"566","da.wav",374,"R",NA,"None",NA,"","bi",4,"f008","1C","auditory"
"567","pi.wav",375,"R",NA,"None",NA,"","bi",4,"f008","1C","auditory"
"568","ba.wav",376,"R",NA,"None",NA,"","bi",4,"f008","1C","auditory"
"569","ba.wav",377,"R",NA,"None",NA,"","bi",4,"f008","1C","auditory"
"570","tu.wav",378,"R",NA,"None",NA,"","bi",4,"f008","1C","auditory"
"571","ti.wav",379,"R",NA,"None",NA,"","bi",4,"f008","1C","auditory"
"572","bi.wav",380,"R",NA,"None",NA,"","bi",4,"f008","1C","auditory"
"573","du.wav",381,"R",0.450498019345,"3",NA,"","bi",4,"f008","1C","auditory"
"574","pa.wav",382,"R",NA,"None",NA,"","bi",4,"f008","1C","auditory"
"575","da.wav",383,"R",NA,"None",NA,"","bi",4,"f008","1C","auditory"
"576","tu.wav",384,"R",NA,"None",NA,"","bi",4,"f008","1C","auditory"
"577","silence.wav",0,"B",NA,"None",NA,"","bi",4,"f008","1C","auditory"
"578","silence.wav",0,"B",NA,"None",NA,"","bi",4,"f008","1C","auditory"
"579","silence.wav",0,"B",NA,"None",NA,"","bi",4,"f008","1C","auditory"
"580","silence.wav",0,"B",NA,"None",NA,"","bi",4,"f008","1C","auditory"
"581","silence.wav",0,"B",NA,"None",NA,"","bi",4,"f008","1C","auditory"
"582","silence.wav",0,"B",NA,"None",NA,"","bi",4,"f008","1C","auditory"
"583","silence.wav",0,"B",NA,"None",NA,"","bi",4,"f008","1C","auditory"
"584","silence.wav",0,"B",NA,"None",NA,"","bi",4,"f008","1C","auditory"
"585","silence.wav",0,"B",NA,"None",NA,"","bi",4,"f008","1C","auditory"
"586","silence.wav",0,"B",NA,"None",NA,"","bi",4,"f008","1C","auditory"
"587","silence.wav",0,"B",NA,"None",NA,"","bi",4,"f008","1C","auditory"
"588","silence.wav",0,"B",NA,"None",NA,"","bi",4,"f008","1C","auditory"
"589","silence.wav",0,"B",NA,"None",NA,"","bi",4,"f008","1C","auditory"
"590","silence.wav",0,"B",NA,"None",NA,"","bi",4,"f008","1C","auditory"
"591","silence.wav",0,"B",NA,"None",NA,"","bi",4,"f008","1C","auditory"
"592","silence.wav",0,"B",NA,"None",NA,"","bi",4,"f008","1C","auditory"
"593","silence.wav",0,"B",NA,"None",NA,"","bi",4,"f008","1C","auditory"
"594","silence.wav",0,"B",NA,"None",NA,"","bi",4,"f008","1C","auditory"
"595","silence.wav",0,"B",NA,"None",NA,"","bi",4,"f008","1C","auditory"
"596","silence.wav",0,"B",NA,"None",NA,"","bi",4,"f008","1C","auditory"
"597","silence.wav",0,"B",NA,"None",NA,"","bi",4,"f008","1C","auditory"
"598","silence.wav",0,"B",NA,"None",NA,"","bi",4,"f008","1C","auditory"
"599","silence.wav",0,"B",NA,"None",NA,"","bi",4,"f008","1C","auditory"
"600","silence.wav",0,"B",NA,"None",NA,"","bi",4,"f008","1C","auditory"
"601","tu.wav",481,"R",NA,"None",NA,"","bi",4,"f008","1C","auditory"
"602","bi.wav",482,"R",NA,"None",NA,"","bi",4,"f008","1C","auditory"
"603","ta.wav",483,"R",0.217052605469,"3",NA,"","bi",4,"f008","1C","auditory"
"604","ti.wav",484,"R",NA,"None",NA,"","bi",4,"f008","1C","auditory"
"605","pa.wav",485,"R",NA,"None",NA,"","bi",4,"f008","1C","auditory"
"606","du.wav",486,"R",NA,"None",NA,"","bi",4,"f008","1C","auditory"
"607","du.wav",487,"R",NA,"None",NA,"","bi",4,"f008","1C","auditory"
"608","pi.wav",488,"R",NA,"None",NA,"","bi",4,"f008","1C","auditory"
"609","bu.wav",489,"R",NA,"None",NA,"","bi",4,"f008","1C","auditory"
"610","ba.wav",490,"R",NA,"None",NA,"","bi",4,"f008","1C","auditory"
"611","ti.wav",491,"R",NA,"None",NA,"","bi",4,"f008","1C","auditory"
"612","da.wav",492,"R",NA,"None",NA,"","bi",4,"f008","1C","auditory"
"613","pu.wav",493,"R",NA,"None",NA,"","bi",4,"f008","1C","auditory"
"614","pa.wav",494,"R",NA,"None",NA,"","bi",4,"f008","1C","auditory"
"615","ba.wav",495,"R",NA,"None",NA,"","bi",4,"f008","1C","auditory"
"616","pi.wav",496,"R",NA,"None",NA,"","bi",4,"f008","1C","auditory"
"617","tu.wav",497,"R",NA,"None",NA,"","bi",4,"f008","1C","auditory"
"618","ta.wav",498,"R",NA,"None",NA,"","bi",4,"f008","1C","auditory"
"619","di.wav",499,"R",NA,"None",NA,"","bi",4,"f008","1C","auditory"
"620","bi.wav",500,"R",NA,"None",NA,"","bi",4,"f008","1C","auditory"
"621","da.wav",501,"R",0.408775447402,"3",NA,"","bi",4,"f008","1C","auditory"
"622","di.wav",502,"R",NA,"None",NA,"","bi",4,"f008","1C","auditory"
"623","pu.wav",503,"R",NA,"None",NA,"","bi",4,"f008","1C","auditory"
"624","bu.wav",504,"R",NA,"None",NA,"","bi",4,"f008","1C","auditory"
"625","ta.wav",505,"R",NA,"None",NA,"","bi",4,"f008","1C","auditory"
"626","di.wav",506,"R",NA,"None",NA,"","bi",4,"f008","1C","auditory"
"627","bi.wav",507,"R",NA,"None",NA,"","bi",4,"f008","1C","auditory"
"628","bu.wav",508,"R",NA,"None",NA,"","bi",4,"f008","1C","auditory"
"629","du.wav",509,"R",0.0503759358544,"3",NA,"","bi",4,"f008","1C","auditory"
"630","da.wav",510,"R",NA,"None",NA,"","bi",4,"f008","1C","auditory"
"631","ti.wav",511,"R",NA,"None",NA,"","bi",4,"f008","1C","auditory"
"632","pu.wav",512,"R",NA,"None",NA,"","bi",4,"f008","1C","auditory"
"633","di.wav",513,"R",NA,"None",NA,"","bi",4,"f008","1C","auditory"
"634","ba.wav",514,"R",NA,"None",NA,"","bi",4,"f008","1C","auditory"
"635","ta.wav",515,"R",0.0644289054908,"3",NA,"","bi",4,"f008","1C","auditory"
"636","bi.wav",516,"R",NA,"None",NA,"","bi",4,"f008","1C","auditory"
"637","pi.wav",517,"R",0.275445034378,"3",NA,"","bi",4,"f008","1C","auditory"
"638","da.wav",518,"R",NA,"None",NA,"","bi",4,"f008","1C","auditory"
"639","pa.wav",519,"R",NA,"None",NA,"","bi",4,"f008","1C","auditory"
"640","pi.wav",520,"R",NA,"None",NA,"","bi",4,"f008","1C","auditory"
"641","du.wav",521,"R",NA,"None",NA,"","bi",4,"f008","1C","auditory"
"642","tu.wav",522,"R",NA,"None",NA,"","bi",4,"f008","1C","auditory"
"643","pa.wav",523,"R",NA,"None",NA,"","bi",4,"f008","1C","auditory"
"644","tu.wav",524,"R",NA,"None",NA,"","bi",4,"f008","1C","auditory"
"645","ti.wav",525,"R",NA,"None",NA,"","bi",4,"f008","1C","auditory"
"646","ba.wav",526,"R",NA,"None",NA,"","bi",4,"f008","1C","auditory"
"647","bu.wav",527,"R",NA,"None",NA,"","bi",4,"f008","1C","auditory"
"648","pu.wav",528,"R",NA,"None",NA,"","bi",4,"f008","1C","auditory"
"649","pa.wav",529,"R",NA,"None",NA,"","bi",4,"f008","1C","auditory"
"650","da.wav",530,"R",NA,"None",NA,"","bi",4,"f008","1C","auditory"
"651","pi.wav",531,"R",NA,"None",NA,"","bi",4,"f008","1C","auditory"
"652","tu.wav",532,"R",NA,"None",NA,"","bi",4,"f008","1C","auditory"
"653","du.wav",533,"R",NA,"None",NA,"","bi",4,"f008","1C","auditory"
"654","bi.wav",534,"R",NA,"None",NA,"","bi",4,"f008","1C","auditory"
"655","ta.wav",535,"R",0.225414413959,"3",NA,"","bi",4,"f008","1C","auditory"
"656","bu.wav",536,"R",NA,"None",NA,"","bi",4,"f008","1C","auditory"
"657","du.wav",537,"R",NA,"None",NA,"","bi",4,"f008","1C","auditory"
"658","ti.wav",538,"R",NA,"None",NA,"","bi",4,"f008","1C","auditory"
"659","bu.wav",539,"R",NA,"None",NA,"","bi",4,"f008","1C","auditory"
"660","da.wav",540,"R",NA,"None",NA,"","bi",4,"f008","1C","auditory"
"661","ta.wav",541,"R",NA,"None",NA,"","bi",4,"f008","1C","auditory"
"662","tu.wav",542,"R",NA,"None",NA,"","bi",4,"f008","1C","auditory"
"663","pu.wav",543,"R",NA,"None",NA,"","bi",4,"f008","1C","auditory"
"664","pi.wav",544,"R",NA,"None",NA,"","bi",4,"f008","1C","auditory"
"665","ti.wav",545,"R",NA,"None",NA,"","bi",4,"f008","1C","auditory"
"666","di.wav",546,"R",NA,"None",NA,"","bi",4,"f008","1C","auditory"
"667","bu.wav",547,"R",NA,"None",NA,"","bi",4,"f008","1C","auditory"
"668","pa.wav",548,"R",NA,"None",NA,"","bi",4,"f008","1C","auditory"
"669","bi.wav",549,"R",NA,"None",NA,"","bi",4,"f008","1C","auditory"
"670","da.wav",550,"R",0.39200233703,"3",NA,"","bi",4,"f008","1C","auditory"
"671","ba.wav",551,"R",NA,"None",NA,"","bi",4,"f008","1C","auditory"
"672","pa.wav",552,"R",NA,"None",NA,"","bi",4,"f008","1C","auditory"
"673","tu.wav",553,"R",NA,"None",NA,"","bi",4,"f008","1C","auditory"
"674","du.wav",554,"R",NA,"None",NA,"","bi",4,"f008","1C","auditory"
"675","ti.wav",555,"R",NA,"None",NA,"","bi",4,"f008","1C","auditory"
"676","di.wav",556,"R",NA,"None",NA,"","bi",4,"f008","1C","auditory"
"677","bi.wav",557,"R",NA,"None",NA,"","bi",4,"f008","1C","auditory"
"678","bu.wav",558,"R",0.292768260115,"3",NA,"","bi",4,"f008","1C","auditory"
"679","di.wav",559,"R",NA,"None",NA,"","bi",4,"f008","1C","auditory"
"680","da.wav",560,"R",NA,"None",NA,"","bi",4,"f008","1C","auditory"
"681","ta.wav",561,"R",NA,"None",NA,"","bi",4,"f008","1C","auditory"
"682","pu.wav",562,"R",NA,"None",NA,"","bi",4,"f008","1C","auditory"
"683","ti.wav",563,"R",NA,"None",NA,"","bi",4,"f008","1C","auditory"
"684","ba.wav",564,"R",NA,"None",NA,"","bi",4,"f008","1C","auditory"
"685","pa.wav",565,"R",NA,"None",NA,"","bi",4,"f008","1C","auditory"
"686","pu.wav",566,"R",NA,"None",NA,"","bi",4,"f008","1C","auditory"
"687","du.wav",567,"R",NA,"None",NA,"","bi",4,"f008","1C","auditory"
"688","pi.wav",568,"R",NA,"None",NA,"","bi",4,"f008","1C","auditory"
"689","tu.wav",569,"R",NA,"None",NA,"","bi",4,"f008","1C","auditory"
"690","ba.wav",570,"R",NA,"None",NA,"","bi",4,"f008","1C","auditory"
"691","ba.wav",571,"R",NA,"None",NA,"","bi",4,"f008","1C","auditory"
"692","pu.wav",572,"R",NA,"None",NA,"","bi",4,"f008","1C","auditory"
"693","di.wav",573,"R",NA,"None",NA,"","bi",4,"f008","1C","auditory"
"694","pi.wav",574,"R",NA,"None",NA,"","bi",4,"f008","1C","auditory"
"695","bi.wav",575,"R",NA,"None",NA,"","bi",4,"f008","1C","auditory"
"696","ta.wav",576,"R",0.267076683696,"3",NA,"","bi",4,"f008","1C","auditory"
"697","silence.wav",0,"B",NA,"None",NA,"","bi",4,"f008","1C","auditory"
"698","silence.wav",0,"B",NA,"None",NA,"","bi",4,"f008","1C","auditory"
"699","silence.wav",0,"B",NA,"None",NA,"","bi",4,"f008","1C","auditory"
"700","silence.wav",0,"B",NA,"None",NA,"","bi",4,"f008","1C","auditory"
"701","silence.wav",0,"B",NA,"None",NA,"","bi",4,"f008","1C","auditory"
"702","silence.wav",0,"B",NA,"None",NA,"","bi",4,"f008","1C","auditory"
"703","silence.wav",0,"B",NA,"None",NA,"","bi",4,"f008","1C","auditory"
"704","silence.wav",0,"B",NA,"None",NA,"","bi",4,"f008","1C","auditory"
"705","silence.wav",0,"B",NA,"None",NA,"","bi",4,"f008","1C","auditory"
"706","silence.wav",0,"B",NA,"None",NA,"","bi",4,"f008","1C","auditory"
"707","silence.wav",0,"B",NA,"None",NA,"","bi",4,"f008","1C","auditory"
"708","silence.wav",0,"B",NA,"None",NA,"","bi",4,"f008","1C","auditory"
"709","silence.wav",0,"B",NA,"None",NA,"","bi",4,"f008","1C","auditory"
"710","silence.wav",0,"B",NA,"None",NA,"","bi",4,"f008","1C","auditory"
"711","silence.wav",0,"B",NA,"None",NA,"","bi",4,"f008","1C","auditory"
"712","silence.wav",0,"B",NA,"None",NA,"","bi",4,"f008","1C","auditory"
"713","silence.wav",0,"B",NA,"None",NA,"","bi",4,"f008","1C","auditory"
"714","silence.wav",0,"B",NA,"None",NA,"","bi",4,"f008","1C","auditory"
"715","silence.wav",0,"B",NA,"None",NA,"","bi",4,"f008","1C","auditory"
"716","silence.wav",0,"B",NA,"None",NA,"","bi",4,"f008","1C","auditory"
"717","silence.wav",0,"B",NA,"None",NA,"","bi",4,"f008","1C","auditory"
"718","silence.wav",0,"B",NA,"None",NA,"","bi",4,"f008","1C","auditory"
"719","silence.wav",0,"B",NA,"None",NA,"","bi",4,"f008","1C","auditory"
"720","silence.wav",0,"B",NA,"None",NA,"","bi",4,"f008","1C","auditory"
"721","",NA,"",NA,"",NA,"","bi",4,"f008","1C","auditory"
"722","",NA,"",NA,"",NA,"","bi",4,"f008","1C","auditory"
"723","",NA,"",NA,"",NA,"","bi",4,"f008","1C","auditory"
"724","",NA,"",NA,"",NA,"","bi",4,"f008","1C","auditory"
"725","",NA,"",NA,"",NA,"","bi",4,"f008","1C","auditory"
"726","",NA,"",NA,"",NA,"","bi",4,"f008","1C","auditory"
"727","",NA,"",NA,"",NA,"","bi",4,"f008","1C","auditory"
"728","",NA,"",NA,"",NA,"","bi",4,"f008","1C","auditory"
"729","",NA,"",NA,"",NA,"","bi",4,"f008","1C","auditory"
"730","",NA,"",NA,"",NA,"","bi",4,"f008","1C","auditory"
"731","",NA,"",NA,"",NA,"","bi",4,"f008","1C","auditory"
"732","",NA,"",NA,"",NA,"","bi",4,"f008","1C","auditory"
"733","",NA,"",NA,"",NA,"","bi",4,"f008","1C","auditory"
"734","",NA,"",NA,"",NA,"","bi",4,"f008","1C","auditory"
"735","",NA,"",NA,"",NA,"","bi",4,"f008","1C","auditory"
"736","",NA,"",NA,"",NA,"","bi",4,"f008","1C","auditory"
