"","soundFile","trialnum","condition","sound_block_key_resp.rt","sound_block_key_resp.keys","tone_block_key_resp.rt","tone_block_key_resp.keys","starget","Run","PartID","ttarget","expName"
"1","pi.wav","481","S",NA,"None",NA,"","bi",2,"f008","1C","auditory"
"2","tu.wav","482","S",NA,"None",NA,"","bi",2,"f008","1C","auditory"
"3","bi.wav","483","S",NA,"None",NA,"","bi",2,"f008","1C","auditory"
"4","bu.wav","484","S",0.242100485,"3",NA,"","bi",2,"f008","1C","auditory"
"5","pa.wav","485","S",NA,"None",NA,"","bi",2,"f008","1C","auditory"
"6","da.wav","486","S",NA,"None",NA,"","bi",2,"f008","1C","auditory"
"7","di.wav","487","S",NA,"None",NA,"","bi",2,"f008","1C","auditory"
"8","ba.wav","488","S",NA,"None",NA,"","bi",2,"f008","1C","auditory"
"9","pu.wav","489","S",NA,"None",NA,"","bi",2,"f008","1C","auditory"
"10","ta.wav","490","S",NA,"None",NA,"","bi",2,"f008","1C","auditory"
"11","ti.wav","491","S",NA,"None",NA,"","bi",2,"f008","1C","auditory"
"12","du.wav","492","S",NA,"None",NA,"","bi",2,"f008","1C","auditory"
"13","bu.wav","493","S",NA,"None",NA,"","bi",2,"f008","1C","auditory"
"14","pa.wav","494","S",NA,"None",NA,"","bi",2,"f008","1C","auditory"
"15","da.wav","495","S",NA,"None",NA,"","bi",2,"f008","1C","auditory"
"16","pi.wav","496","S",NA,"None",NA,"","bi",2,"f008","1C","auditory"
"17","tu.wav","497","S",NA,"None",NA,"","bi",2,"f008","1C","auditory"
"18","bi.wav","498","S",NA,"None",NA,"","bi",2,"f008","1C","auditory"
"19","di.wav","499","S",0.200369379,"3",NA,"","bi",2,"f008","1C","auditory"
"20","ba.wav","500","S",NA,"None",NA,"","bi",2,"f008","1C","auditory"
"21","pu.wav","501","S",NA,"None",NA,"","bi",2,"f008","1C","auditory"
"22","ta.wav","502","S",NA,"None",NA,"","bi",2,"f008","1C","auditory"
"23","ti.wav","503","S",NA,"None",NA,"","bi",2,"f008","1C","auditory"
"24","du.wav","504","S",NA,"None",NA,"","bi",2,"f008","1C","auditory"
"25","pi.wav","505","S",NA,"None",NA,"","bi",2,"f008","1C","auditory"
"26","tu.wav","506","S",NA,"None",NA,"","bi",2,"f008","1C","auditory"
"27","bi.wav","507","S",NA,"None",NA,"","bi",2,"f008","1C","auditory"
"28","ta.wav","508","S",0.26694015,"3",NA,"","bi",2,"f008","1C","auditory"
"29","ti.wav","509","S",NA,"None",NA,"","bi",2,"f008","1C","auditory"
"30","du.wav","510","S",NA,"None",NA,"","bi",2,"f008","1C","auditory"
"31","bu.wav","511","S",NA,"None",NA,"","bi",2,"f008","1C","auditory"
"32","pa.wav","512","S",NA,"None",NA,"","bi",2,"f008","1C","auditory"
"33","da.wav","513","S",NA,"None",NA,"","bi",2,"f008","1C","auditory"
"34","di.wav","514","S",NA,"None",NA,"","bi",2,"f008","1C","auditory"
"35","ba.wav","515","S",NA,"None",NA,"","bi",2,"f008","1C","auditory"
"36","pu.wav","516","S",NA,"None",NA,"","bi",2,"f008","1C","auditory"
"37","bu.wav","517","S",NA,"None",NA,"","bi",2,"f008","1C","auditory"
"38","pa.wav","518","S",NA,"None",NA,"","bi",2,"f008","1C","auditory"
"39","da.wav","519","S",NA,"None",NA,"","bi",2,"f008","1C","auditory"
"40","ta.wav","520","S",NA,"None",NA,"","bi",2,"f008","1C","auditory"
"41","ti.wav","521","S",NA,"None",NA,"","bi",2,"f008","1C","auditory"
"42","du.wav","522","S",NA,"None",NA,"","bi",2,"f008","1C","auditory"
"43","pi.wav","523","S",NA,"None",NA,"","bi",2,"f008","1C","auditory"
"44","tu.wav","524","S",NA,"None",NA,"","bi",2,"f008","1C","auditory"
"45","bi.wav","525","S",NA,"None",NA,"","bi",2,"f008","1C","auditory"
"46","di.wav","526","S",0.166944332,"3",NA,"","bi",2,"f008","1C","auditory"
"47","ba.wav","527","S",NA,"None",NA,"","bi",2,"f008","1C","auditory"
"48","pu.wav","528","S",NA,"None",NA,"","bi",2,"f008","1C","auditory"
"49","bu.wav","529","S",NA,"None",NA,"","bi",2,"f008","1C","auditory"
"50","pa.wav","530","S",NA,"None",NA,"","bi",2,"f008","1C","auditory"
"51","da.wav","531","S",NA,"None",NA,"","bi",2,"f008","1C","auditory"
"52","pi.wav","532","S",NA,"None",NA,"","bi",2,"f008","1C","auditory"
"53","tu.wav","533","S",NA,"None",NA,"","bi",2,"f008","1C","auditory"
"54","bi.wav","534","S",NA,"None",NA,"","bi",2,"f008","1C","auditory"
"55","ta.wav","535","S",0.11701412,"3",NA,"","bi",2,"f008","1C","auditory"
"56","ti.wav","536","S",NA,"None",NA,"","bi",2,"f008","1C","auditory"
"57","du.wav","537","S",NA,"None",NA,"","bi",2,"f008","1C","auditory"
"58","bu.wav","538","S",NA,"None",NA,"","bi",2,"f008","1C","auditory"
"59","pa.wav","539","S",NA,"None",NA,"","bi",2,"f008","1C","auditory"
"60","da.wav","540","S",NA,"None",NA,"","bi",2,"f008","1C","auditory"
"61","pi.wav","541","S",NA,"None",NA,"","bi",2,"f008","1C","auditory"
"62","tu.wav","542","S",NA,"None",NA,"","bi",2,"f008","1C","auditory"
"63","bi.wav","543","S",NA,"None",NA,"","bi",2,"f008","1C","auditory"
"64","ta.wav","544","S",0.050491136,"3",NA,"","bi",2,"f008","1C","auditory"
"65","ti.wav","545","S",NA,"None",NA,"","bi",2,"f008","1C","auditory"
"66","du.wav","546","S",NA,"None",NA,"","bi",2,"f008","1C","auditory"
"67","di.wav","547","S",NA,"None",NA,"","bi",2,"f008","1C","auditory"
"68","ba.wav","548","S",NA,"None",NA,"","bi",2,"f008","1C","auditory"
"69","pu.wav","549","S",NA,"None",NA,"","bi",2,"f008","1C","auditory"
"70","bu.wav","550","S",NA,"None",NA,"","bi",2,"f008","1C","auditory"
"71","pa.wav","551","S",NA,"None",NA,"","bi",2,"f008","1C","auditory"
"72","da.wav","552","S",NA,"None",NA,"","bi",2,"f008","1C","auditory"
"73","di.wav","553","S",NA,"None",NA,"","bi",2,"f008","1C","auditory"
"74","ba.wav","554","S",NA,"None",NA,"","bi",2,"f008","1C","auditory"
"75","pu.wav","555","S",NA,"None",NA,"","bi",2,"f008","1C","auditory"
"76","ta.wav","556","S",NA,"None",NA,"","bi",2,"f008","1C","auditory"
"77","ti.wav","557","S",NA,"None",NA,"","bi",2,"f008","1C","auditory"
"78","du.wav","558","S",NA,"None",NA,"","bi",2,"f008","1C","auditory"
"79","pi.wav","559","S",NA,"None",NA,"","bi",2,"f008","1C","auditory"
"80","tu.wav","560","S",NA,"None",NA,"","bi",2,"f008","1C","auditory"
"81","bi.wav","561","S",NA,"None",NA,"","bi",2,"f008","1C","auditory"
"82","di.wav","562","S",0.367082458,"3",NA,"","bi",2,"f008","1C","auditory"
"83","ba.wav","563","S",NA,"None",NA,"","bi",2,"f008","1C","auditory"
"84","pu.wav","564","S",NA,"None",NA,"","bi",2,"f008","1C","auditory"
"85","ta.wav","565","S",NA,"None",NA,"","bi",2,"f008","1C","auditory"
"86","ti.wav","566","S",NA,"None",NA,"","bi",2,"f008","1C","auditory"
"87","du.wav","567","S",NA,"None",NA,"","bi",2,"f008","1C","auditory"
"88","bu.wav","568","S",NA,"None",NA,"","bi",2,"f008","1C","auditory"
"89","pa.wav","569","S",NA,"None",NA,"","bi",2,"f008","1C","auditory"
"90","da.wav","570","S",NA,"None",NA,"","bi",2,"f008","1C","auditory"
"91","pi.wav","571","S",NA,"None",NA,"","bi",2,"f008","1C","auditory"
"92","tu.wav","572","S",NA,"None",NA,"","bi",2,"f008","1C","auditory"
"93","bi.wav","573","S",0.433694189,"3",NA,"","bi",2,"f008","1C","auditory"
"94","di.wav","574","S",NA,"None",NA,"","bi",2,"f008","1C","auditory"
"95","ba.wav","575","S",NA,"None",NA,"","bi",2,"f008","1C","auditory"
"96","pu.wav","576","S",NA,"None",NA,"","bi",2,"f008","1C","auditory"
"97","silence.wav","0","B",NA,"None",NA,"","bi",2,"f008","1C","auditory"
"98","silence.wav","0","B",NA,"None",NA,"","bi",2,"f008","1C","auditory"
"99","silence.wav","0","B",NA,"None",NA,"","bi",2,"f008","1C","auditory"
"100","silence.wav","0","B",NA,"None",NA,"","bi",2,"f008","1C","auditory"
"101","silence.wav","0","B",NA,"None",NA,"","bi",2,"f008","1C","auditory"
"102","silence.wav","0","B",NA,"None",NA,"","bi",2,"f008","1C","auditory"
"103","silence.wav","0","B",NA,"None",NA,"","bi",2,"f008","1C","auditory"
"104","silence.wav","0","B",NA,"None",NA,"","bi",2,"f008","1C","auditory"
"105","silence.wav","0","B",NA,"None",NA,"","bi",2,"f008","1C","auditory"
"106","silence.wav","0","B",NA,"None",NA,"","bi",2,"f008","1C","auditory"
"107","silence.wav","0","B",NA,"None",NA,"","bi",2,"f008","1C","auditory"
"108","silence.wav","0","B",NA,"None",NA,"","bi",2,"f008","1C","auditory"
"109","silence.wav","0","B",NA,"None",NA,"","bi",2,"f008","1C","auditory"
"110","silence.wav","0","B",NA,"None",NA,"","bi",2,"f008","1C","auditory"
"111","silence.wav","0","B",NA,"None",NA,"","bi",2,"f008","1C","auditory"
"112","silence.wav","0","B",NA,"None",NA,"","bi",2,"f008","1C","auditory"
"113","silence.wav","0","B",NA,"None",NA,"","bi",2,"f008","1C","auditory"
"114","silence.wav","0","B",NA,"None",NA,"","bi",2,"f008","1C","auditory"
"115","silence.wav","0","B",NA,"None",NA,"","bi",2,"f008","1C","auditory"
"116","silence.wav","0","B",NA,"None",NA,"","bi",2,"f008","1C","auditory"
"117","silence.wav","0","B",NA,"None",NA,"","bi",2,"f008","1C","auditory"
"118","silence.wav","0","B",NA,"None",NA,"","bi",2,"f008","1C","auditory"
"119","silence.wav","0","B",NA,"None",NA,"","bi",2,"f008","1C","auditory"
"120","silence.wav","0","B",NA,"None",NA,"","bi",2,"f008","1C","auditory"
"121","pi.wav","379","S",NA,"None",NA,"","bi",2,"f008","1C","auditory"
"122","tu.wav","380","S",NA,"None",NA,"","bi",2,"f008","1C","auditory"
"123","bi.wav","381","S",0.343338471,"3",NA,"","bi",2,"f008","1C","auditory"
"124","pi.wav","385","S",NA,"None",NA,"","bi",2,"f008","1C","auditory"
"125","tu.wav","386","S",NA,"None",NA,"","bi",2,"f008","1C","auditory"
"126","bi.wav","387","S",NA,"None",NA,"","bi",2,"f008","1C","auditory"
"127","bu.wav","391","S",NA,"None",NA,"","bi",2,"f008","1C","auditory"
"128","pa.wav","392","S",NA,"None",NA,"","bi",2,"f008","1C","auditory"
"129","da.wav","393","S",NA,"None",NA,"","bi",2,"f008","1C","auditory"
"130","ta.wav","394","S",NA,"None",NA,"","bi",2,"f008","1C","auditory"
"131","ti.wav","395","S",NA,"None",NA,"","bi",2,"f008","1C","auditory"
"132","du.wav","396","S",NA,"None",NA,"","bi",2,"f008","1C","auditory"
"133","di.wav","397","S",NA,"None",NA,"","bi",2,"f008","1C","auditory"
"134","ba.wav","398","S",NA,"None",NA,"","bi",2,"f008","1C","auditory"
"135","pu.wav","399","S",NA,"None",NA,"","bi",2,"f008","1C","auditory"
"136","pi.wav","400","S",NA,"None",NA,"","bi",2,"f008","1C","auditory"
"137","tu.wav","401","S",NA,"None",NA,"","bi",2,"f008","1C","auditory"
"138","bi.wav","402","S",0.400314368,"3",NA,"","bi",2,"f008","1C","auditory"
"139","ta.wav","403","S",NA,"None",NA,"","bi",2,"f008","1C","auditory"
"140","ti.wav","404","S",NA,"None",NA,"","bi",2,"f008","1C","auditory"
"141","du.wav","405","S",NA,"None",NA,"","bi",2,"f008","1C","auditory"
"142","bu.wav","406","S",NA,"None",NA,"","bi",2,"f008","1C","auditory"
"143","pa.wav","407","S",NA,"None",NA,"","bi",2,"f008","1C","auditory"
"144","da.wav","408","S",NA,"None",NA,"","bi",2,"f008","1C","auditory"
"145","di.wav","409","S",NA,"None",NA,"","bi",2,"f008","1C","auditory"
"146","ba.wav","410","S",NA,"None",NA,"","bi",2,"f008","1C","auditory"
"147","pu.wav","411","S",NA,"None",NA,"","bi",2,"f008","1C","auditory"
"148","pi.wav","412","S",NA,"None",NA,"","bi",2,"f008","1C","auditory"
"149","tu.wav","413","S",NA,"None",NA,"","bi",2,"f008","1C","auditory"
"150","bi.wav","414","S",0.317017989,"3",NA,"","bi",2,"f008","1C","auditory"
"151","di.wav","415","S",NA,"None",NA,"","bi",2,"f008","1C","auditory"
"152","ba.wav","416","S",NA,"None",NA,"","bi",2,"f008","1C","auditory"
"153","pu.wav","417","S",NA,"None",NA,"","bi",2,"f008","1C","auditory"
"154","bu.wav","418","S",NA,"None",NA,"","bi",2,"f008","1C","auditory"
"155","pa.wav","419","S",NA,"None",NA,"","bi",2,"f008","1C","auditory"
"156","da.wav","420","S",NA,"None",NA,"","bi",2,"f008","1C","auditory"
"157","ta.wav","421","S",NA,"None",NA,"","bi",2,"f008","1C","auditory"
"158","ti.wav","422","S",NA,"None",NA,"","bi",2,"f008","1C","auditory"
"159","du.wav","423","S",NA,"None",NA,"","bi",2,"f008","1C","auditory"
"160","bu.wav","424","S",NA,"None",NA,"","bi",2,"f008","1C","auditory"
"161","pa.wav","425","S",NA,"None",NA,"","bi",2,"f008","1C","auditory"
"162","da.wav","426","S",NA,"None",NA,"","bi",2,"f008","1C","auditory"
"163","ta.wav","427","S",NA,"None",NA,"","bi",2,"f008","1C","auditory"
"164","ti.wav","428","S",NA,"None",NA,"","bi",2,"f008","1C","auditory"
"165","du.wav","429","S",NA,"None",NA,"","bi",2,"f008","1C","auditory"
"166","di.wav","430","S",NA,"None",NA,"","bi",2,"f008","1C","auditory"
"167","ba.wav","431","S",NA,"None",NA,"","bi",2,"f008","1C","auditory"
"168","pu.wav","432","S",NA,"None",NA,"","bi",2,"f008","1C","auditory"
"169","pi.wav","433","S",NA,"None",NA,"","bi",2,"f008","1C","auditory"
"170","tu.wav","434","S",NA,"None",NA,"","bi",2,"f008","1C","auditory"
"171","bi.wav","435","S",0.383761986,"3",NA,"","bi",2,"f008","1C","auditory"
"172","ta.wav","436","S",NA,"None",NA,"","bi",2,"f008","1C","auditory"
"173","ti.wav","437","S",NA,"None",NA,"","bi",2,"f008","1C","auditory"
"174","du.wav","438","S",NA,"None",NA,"","bi",2,"f008","1C","auditory"
"175","pi.wav","439","S",NA,"None",NA,"","bi",2,"f008","1C","auditory"
"176","tu.wav","440","S",NA,"None",NA,"","bi",2,"f008","1C","auditory"
"177","bi.wav","441","S",0.283508461,"3",NA,"","bi",2,"f008","1C","auditory"
"178","bu.wav","442","S",NA,"None",NA,"","bi",2,"f008","1C","auditory"
"179","pa.wav","443","S",NA,"None",NA,"","bi",2,"f008","1C","auditory"
"180","da.wav","444","S",NA,"None",NA,"","bi",2,"f008","1C","auditory"
"181","di.wav","445","S",NA,"None",NA,"","bi",2,"f008","1C","auditory"
"182","ba.wav","446","S",NA,"None",NA,"","bi",2,"f008","1C","auditory"
"183","pu.wav","447","S",NA,"None",NA,"","bi",2,"f008","1C","auditory"
"184","pi.wav","448","S",NA,"None",NA,"","bi",2,"f008","1C","auditory"
"185","tu.wav","449","S",NA,"None",NA,"","bi",2,"f008","1C","auditory"
"186","bi.wav","450","S",0.358783227,"3",NA,"","bi",2,"f008","1C","auditory"
"187","bu.wav","451","S",NA,"None",NA,"","bi",2,"f008","1C","auditory"
"188","pa.wav","452","S",NA,"None",NA,"","bi",2,"f008","1C","auditory"
"189","da.wav","453","S",NA,"None",NA,"","bi",2,"f008","1C","auditory"
"190","di.wav","454","S",NA,"None",NA,"","bi",2,"f008","1C","auditory"
"191","ba.wav","455","S",NA,"None",NA,"","bi",2,"f008","1C","auditory"
"192","pu.wav","456","S",NA,"None",NA,"","bi",2,"f008","1C","auditory"
"193","ta.wav","457","S",NA,"None",NA,"","bi",2,"f008","1C","auditory"
"194","ti.wav","458","S",NA,"None",NA,"","bi",2,"f008","1C","auditory"
"195","du.wav","459","S",NA,"None",NA,"","bi",2,"f008","1C","auditory"
"196","di.wav","460","S",NA,"None",NA,"","bi",2,"f008","1C","auditory"
"197","ba.wav","461","S",NA,"None",NA,"","bi",2,"f008","1C","auditory"
"198","pu.wav","462","S",NA,"None",NA,"","bi",2,"f008","1C","auditory"
"199","pi.wav","463","S",NA,"None",NA,"","bi",2,"f008","1C","auditory"
"200","tu.wav","464","S",NA,"None",NA,"","bi",2,"f008","1C","auditory"
"201","bi.wav","465","S",0.261121558,"3",NA,"","bi",2,"f008","1C","auditory"
"202","ta.wav","466","S",NA,"None",NA,"","bi",2,"f008","1C","auditory"
"203","ti.wav","467","S",NA,"None",NA,"","bi",2,"f008","1C","auditory"
"204","du.wav","468","S",NA,"None",NA,"","bi",2,"f008","1C","auditory"
"205","bu.wav","469","S",NA,"None",NA,"","bi",2,"f008","1C","auditory"
"206","pa.wav","470","S",NA,"None",NA,"","bi",2,"f008","1C","auditory"
"207","da.wav","471","S",NA,"None",NA,"","bi",2,"f008","1C","auditory"
"208","ta.wav","472","S",NA,"None",NA,"","bi",2,"f008","1C","auditory"
"209","ti.wav","473","S",NA,"None",NA,"","bi",2,"f008","1C","auditory"
"210","du.wav","474","S",NA,"None",NA,"","bi",2,"f008","1C","auditory"
"211","di.wav","475","S",NA,"None",NA,"","bi",2,"f008","1C","auditory"
"212","ba.wav","476","S",NA,"None",NA,"","bi",2,"f008","1C","auditory"
"213","pu.wav","477","S",NA,"None",NA,"","bi",2,"f008","1C","auditory"
"214","bu.wav","478","S",NA,"None",NA,"","bi",2,"f008","1C","auditory"
"215","pa.wav","479","S",NA,"None",NA,"","bi",2,"f008","1C","auditory"
"216","da.wav","480","S",NA,"None",NA,"","bi",2,"f008","1C","auditory"
"217","silence.wav","0","B",NA,"None",NA,"","bi",2,"f008","1C","auditory"
"218","silence.wav","0","B",NA,"None",NA,"","bi",2,"f008","1C","auditory"
"219","silence.wav","0","B",NA,"None",NA,"","bi",2,"f008","1C","auditory"
"220","silence.wav","0","B",NA,"None",NA,"","bi",2,"f008","1C","auditory"
"221","silence.wav","0","B",NA,"None",NA,"","bi",2,"f008","1C","auditory"
"222","silence.wav","0","B",NA,"None",NA,"","bi",2,"f008","1C","auditory"
"223","silence.wav","0","B",NA,"None",NA,"","bi",2,"f008","1C","auditory"
"224","silence.wav","0","B",NA,"None",NA,"","bi",2,"f008","1C","auditory"
"225","silence.wav","0","B",NA,"None",NA,"","bi",2,"f008","1C","auditory"
"226","silence.wav","0","B",NA,"None",NA,"","bi",2,"f008","1C","auditory"
"227","silence.wav","0","B",NA,"None",NA,"","bi",2,"f008","1C","auditory"
"228","silence.wav","0","B",NA,"None",NA,"","bi",2,"f008","1C","auditory"
"229","silence.wav","0","B",NA,"None",NA,"","bi",2,"f008","1C","auditory"
"230","silence.wav","0","B",NA,"None",NA,"","bi",2,"f008","1C","auditory"
"231","silence.wav","0","B",NA,"None",NA,"","bi",2,"f008","1C","auditory"
"232","silence.wav","0","B",NA,"None",NA,"","bi",2,"f008","1C","auditory"
"233","silence.wav","0","B",NA,"None",NA,"","bi",2,"f008","1C","auditory"
"234","silence.wav","0","B",NA,"None",NA,"","bi",2,"f008","1C","auditory"
"235","silence.wav","0","B",NA,"None",NA,"","bi",2,"f008","1C","auditory"
"236","silence.wav","0","B",NA,"None",NA,"","bi",2,"f008","1C","auditory"
"237","silence.wav","0","B",NA,"None",NA,"","bi",2,"f008","1C","auditory"
"238","silence.wav","0","B",NA,"None",NA,"","bi",2,"f008","1C","auditory"
"239","silence.wav","0","B",NA,"None",NA,"","bi",2,"f008","1C","auditory"
"240","silence.wav","0","B",NA,"None",NA,"","bi",2,"f008","1C","auditory"
"241","4A.wav","481","R",NA,"",NA,"None","bi",2,"f008","1C","auditory"
"242","2B.wav","482","R",NA,"",NA,"None","bi",2,"f008","1C","auditory"
"243","4B.wav","483","R",NA,"",NA,"None","bi",2,"f008","1C","auditory"
"244","1A.wav","484","R",NA,"",NA,"None","bi",2,"f008","1C","auditory"
"245","2C.wav","485","R",NA,"",NA,"None","bi",2,"f008","1C","auditory"
"246","3B.wav","486","R",NA,"",NA,"None","bi",2,"f008","1C","auditory"
"247","3A.wav","487","R",NA,"",NA,"None","bi",2,"f008","1C","auditory"
"248","3C.wav","488","R",NA,"",0.377486576,"3","bi",2,"f008","1C","auditory"
"249","4C.wav","489","R",NA,"",NA,"None","bi",2,"f008","1C","auditory"
"250","4A.wav","490","R",NA,"",NA,"None","bi",2,"f008","1C","auditory"
"251","1C.wav","491","R",NA,"",NA,"None","bi",2,"f008","1C","auditory"
"252","2A.wav","492","R",NA,"",0.175273714,"3","bi",2,"f008","1C","auditory"
"253","2A.wav","493","R",NA,"",NA,"None","bi",2,"f008","1C","auditory"
"254","1B.wav","494","R",NA,"",NA,"None","bi",2,"f008","1C","auditory"
"255","3B.wav","495","R",NA,"",NA,"None","bi",2,"f008","1C","auditory"
"256","4C.wav","496","R",NA,"",NA,"None","bi",2,"f008","1C","auditory"
"257","3A.wav","497","R",NA,"",NA,"None","bi",2,"f008","1C","auditory"
"258","1B.wav","498","R",NA,"",0.20876333,"3","bi",2,"f008","1C","auditory"
"259","4B.wav","499","R",NA,"",NA,"None","bi",2,"f008","1C","auditory"
"260","1A.wav","500","R",NA,"",NA,"None","bi",2,"f008","1C","auditory"
"261","1C.wav","501","R",NA,"",NA,"None","bi",2,"f008","1C","auditory"
"262","2C.wav","502","R",NA,"",NA,"None","bi",2,"f008","1C","auditory"
"263","2B.wav","503","R",NA,"",NA,"None","bi",2,"f008","1C","auditory"
"264","3C.wav","504","R",NA,"",0.066972691,"3","bi",2,"f008","1C","auditory"
"265","3B.wav","505","R",NA,"",NA,"None","bi",2,"f008","1C","auditory"
"266","3B.wav","506","R",NA,"",NA,"None","bi",2,"f008","1C","auditory"
"267","4A.wav","507","R",NA,"",NA,"None","bi",2,"f008","1C","auditory"
"268","4A.wav","508","R",NA,"",NA,"None","bi",2,"f008","1C","auditory"
"269","1B.wav","509","R",NA,"",NA,"None","bi",2,"f008","1C","auditory"
"270","2C.wav","510","R",NA,"",0.219211253,"3","bi",2,"f008","1C","auditory"
"271","1A.wav","511","R",NA,"",NA,"None","bi",2,"f008","1C","auditory"
"272","3C.wav","512","R",NA,"",0.300297216,"3","bi",2,"f008","1C","auditory"
"273","1C.wav","513","R",NA,"",NA,"None","bi",2,"f008","1C","auditory"
"274","4C.wav","514","R",NA,"",NA,"None","bi",2,"f008","1C","auditory"
"275","2B.wav","515","R",NA,"",0.227280653,"3","bi",2,"f008","1C","auditory"
"276","1A.wav","516","R",NA,"",NA,"None","bi",2,"f008","1C","auditory"
"277","1B.wav","517","R",NA,"",0.292154145,"3","bi",2,"f008","1C","auditory"
"278","2B.wav","518","R",NA,"",NA,"None","bi",2,"f008","1C","auditory"
"279","2A.wav","519","R",NA,"",0.258659693,"3","bi",2,"f008","1C","auditory"
"280","3A.wav","520","R",NA,"",NA,"None","bi",2,"f008","1C","auditory"
"281","4B.wav","521","R",NA,"",0.308645656,"3","bi",2,"f008","1C","auditory"
"282","2C.wav","522","R",NA,"",NA,"None","bi",2,"f008","1C","auditory"
"283","3C.wav","523","R",NA,"",NA,"None","bi",2,"f008","1C","auditory"
"284","4C.wav","524","R",NA,"",0.217023308,"3","bi",2,"f008","1C","auditory"
"285","1C.wav","525","R",NA,"",NA,"None","bi",2,"f008","1C","auditory"
"286","3A.wav","526","R",NA,"",NA,"None","bi",2,"f008","1C","auditory"
"287","4B.wav","527","R",NA,"",0.208743988,"3","bi",2,"f008","1C","auditory"
"288","2A.wav","528","R",NA,"",NA,"None","bi",2,"f008","1C","auditory"
"289","4A.wav","529","R",NA,"",NA,"None","bi",2,"f008","1C","auditory"
"290","3A.wav","530","R",NA,"",0.167037914,"3","bi",2,"f008","1C","auditory"
"291","2A.wav","531","R",NA,"",NA,"None","bi",2,"f008","1C","auditory"
"292","4B.wav","532","R",NA,"",NA,"None","bi",2,"f008","1C","auditory"
"293","2A.wav","533","R",NA,"",NA,"None","bi",2,"f008","1C","auditory"
"294","2B.wav","534","R",NA,"",NA,"None","bi",2,"f008","1C","auditory"
"295","2B.wav","535","R",NA,"",NA,"None","bi",2,"f008","1C","auditory"
"296","2C.wav","536","R",NA,"",0.275443612,"3","bi",2,"f008","1C","auditory"
"297","4B.wav","537","R",NA,"",NA,"None","bi",2,"f008","1C","auditory"
"298","3B.wav","538","R",NA,"",NA,"None","bi",2,"f008","1C","auditory"
"299","2B.wav","539","R",NA,"",NA,"None","bi",2,"f008","1C","auditory"
"300","4A.wav","540","R",NA,"",0.100304441,"3","bi",2,"f008","1C","auditory"
"301","3C.wav","541","R",NA,"",NA,"None","bi",2,"f008","1C","auditory"
"302","2C.wav","542","R",NA,"",NA,"None","bi",2,"f008","1C","auditory"
"303","4C.wav","543","R",NA,"",NA,"None","bi",2,"f008","1C","auditory"
"304","3C.wav","544","R",NA,"",NA,"None","bi",2,"f008","1C","auditory"
"305","1A.wav","545","R",NA,"",0.175299883,"3","bi",2,"f008","1C","auditory"
"306","4C.wav","546","R",NA,"",NA,"None","bi",2,"f008","1C","auditory"
"307","2C.wav","547","R",NA,"",NA,"None","bi",2,"f008","1C","auditory"
"308","1C.wav","548","R",NA,"",NA,"None","bi",2,"f008","1C","auditory"
"309","1B.wav","549","R",NA,"",0.108638089,"3","bi",2,"f008","1C","auditory"
"310","2A.wav","550","R",NA,"",NA,"None","bi",2,"f008","1C","auditory"
"311","3A.wav","551","R",NA,"",NA,"None","bi",2,"f008","1C","auditory"
"312","3B.wav","552","R",NA,"",0.200378766,"3","bi",2,"f008","1C","auditory"
"313","1A.wav","553","R",NA,"",NA,"None","bi",2,"f008","1C","auditory"
"314","2C.wav","554","R",NA,"",NA,"None","bi",2,"f008","1C","auditory"
"315","2B.wav","555","R",NA,"",0.325377522,"3","bi",2,"f008","1C","auditory"
"316","4B.wav","556","R",NA,"",NA,"None","bi",2,"f008","1C","auditory"
"317","1B.wav","557","R",NA,"",NA,"None","bi",2,"f008","1C","auditory"
"318","4B.wav","558","R",NA,"",NA,"None","bi",2,"f008","1C","auditory"
"319","1B.wav","559","R",NA,"",0.375344995,"3","bi",2,"f008","1C","auditory"
"320","4A.wav","560","R",NA,"",NA,"None","bi",2,"f008","1C","auditory"
"321","3A.wav","561","R",NA,"",NA,"None","bi",2,"f008","1C","auditory"
"322","2A.wav","562","R",NA,"",0.050321038,"3","bi",2,"f008","1C","auditory"
"323","4A.wav","563","R",NA,"",NA,"None","bi",2,"f008","1C","auditory"
"324","3B.wav","564","R",NA,"",NA,"None","bi",2,"f008","1C","auditory"
"325","4C.wav","565","R",NA,"",NA,"None","bi",2,"f008","1C","auditory"
"326","1A.wav","566","R",NA,"",NA,"None","bi",2,"f008","1C","auditory"
"327","1C.wav","567","R",NA,"",NA,"None","bi",2,"f008","1C","auditory"
"328","3B.wav","568","R",NA,"",NA,"None","bi",2,"f008","1C","auditory"
"329","4C.wav","569","R",NA,"",NA,"None","bi",2,"f008","1C","auditory"
"330","3C.wav","570","R",NA,"",NA,"None","bi",2,"f008","1C","auditory"
"331","1C.wav","571","R",NA,"",0.175318371,"3","bi",2,"f008","1C","auditory"
"332","3A.wav","572","R",NA,"",NA,"None","bi",2,"f008","1C","auditory"
"333","1C.wav","573","R",NA,"",NA,"None","bi",2,"f008","1C","auditory"
"334","1B.wav","574","R",NA,"",NA,"None","bi",2,"f008","1C","auditory"
"335","3C.wav","575","R",NA,"",NA,"None","bi",2,"f008","1C","auditory"
"336","1A.wav","576","R",NA,"",0.258754413,"3","bi",2,"f008","1C","auditory"
"337","silence.wav","0","B",NA,"",NA,"None","bi",2,"f008","1C","auditory"
"338","silence.wav","0","B",NA,"",NA,"None","bi",2,"f008","1C","auditory"
"339","silence.wav","0","B",NA,"",NA,"None","bi",2,"f008","1C","auditory"
"340","silence.wav","0","B",NA,"",NA,"None","bi",2,"f008","1C","auditory"
"341","silence.wav","0","B",NA,"",NA,"None","bi",2,"f008","1C","auditory"
"342","silence.wav","0","B",NA,"",NA,"None","bi",2,"f008","1C","auditory"
"343","silence.wav","0","B",NA,"",NA,"None","bi",2,"f008","1C","auditory"
"344","silence.wav","0","B",NA,"",NA,"None","bi",2,"f008","1C","auditory"
"345","silence.wav","0","B",NA,"",NA,"None","bi",2,"f008","1C","auditory"
"346","silence.wav","0","B",NA,"",NA,"None","bi",2,"f008","1C","auditory"
"347","silence.wav","0","B",NA,"",NA,"None","bi",2,"f008","1C","auditory"
"348","silence.wav","0","B",NA,"",NA,"None","bi",2,"f008","1C","auditory"
"349","silence.wav","0","B",NA,"",NA,"None","bi",2,"f008","1C","auditory"
"350","silence.wav","0","B",NA,"",NA,"None","bi",2,"f008","1C","auditory"
"351","silence.wav","0","B",NA,"",NA,"None","bi",2,"f008","1C","auditory"
"352","silence.wav","0","B",NA,"",NA,"None","bi",2,"f008","1C","auditory"
"353","silence.wav","0","B",NA,"",NA,"None","bi",2,"f008","1C","auditory"
"354","silence.wav","0","B",NA,"",NA,"None","bi",2,"f008","1C","auditory"
"355","silence.wav","0","B",NA,"",NA,"None","bi",2,"f008","1C","auditory"
"356","silence.wav","0","B",NA,"",NA,"None","bi",2,"f008","1C","auditory"
"357","silence.wav","0","B",NA,"",NA,"None","bi",2,"f008","1C","auditory"
"358","silence.wav","0","B",NA,"",NA,"None","bi",2,"f008","1C","auditory"
"359","silence.wav","0","B",NA,"",NA,"None","bi",2,"f008","1C","auditory"
"360","silence.wav","0","B",NA,"",NA,"None","bi",2,"f008","1C","auditory"
"361","3B.wav","289","R",NA,"",NA,"None","bi",2,"f008","1C","auditory"
"362","1B.wav","290","R",NA,"",NA,"None","bi",2,"f008","1C","auditory"
"363","1C.wav","291","R",NA,"",NA,"None","bi",2,"f008","1C","auditory"
"364","4C.wav","292","R",NA,"",0.200330411,"3","bi",2,"f008","1C","auditory"
"365","2A.wav","293","R",NA,"",NA,"None","bi",2,"f008","1C","auditory"
"366","1B.wav","294","R",NA,"",NA,"None","bi",2,"f008","1C","auditory"
"367","4A.wav","295","R",NA,"",NA,"None","bi",2,"f008","1C","auditory"
"368","1A.wav","296","R",NA,"",NA,"None","bi",2,"f008","1C","auditory"
"369","3C.wav","297","R",NA,"",NA,"None","bi",2,"f008","1C","auditory"
"370","3A.wav","298","R",NA,"",NA,"None","bi",2,"f008","1C","auditory"
"371","3C.wav","299","R",NA,"",0.408679305,"3","bi",2,"f008","1C","auditory"
"372","4A.wav","300","R",NA,"",NA,"None","bi",2,"f008","1C","auditory"
"373","3C.wav","301","R",NA,"",NA,"None","bi",2,"f008","1C","auditory"
"374","2C.wav","302","R",NA,"",NA,"None","bi",2,"f008","1C","auditory"
"375","3A.wav","303","R",NA,"",NA,"None","bi",2,"f008","1C","auditory"
"376","3A.wav","304","R",NA,"",0.058595522,"3","bi",2,"f008","1C","auditory"
"377","2B.wav","305","R",NA,"",0.217122294,"3","bi",2,"f008","1C","auditory"
"378","4C.wav","306","R",NA,"",0.367033818,"3","bi",2,"f008","1C","auditory"
"379","1A.wav","307","R",NA,"",NA,"None","bi",2,"f008","1C","auditory"
"380","3B.wav","308","R",NA,"",NA,"None","bi",2,"f008","1C","auditory"
"381","4B.wav","309","R",NA,"",NA,"None","bi",2,"f008","1C","auditory"
"382","1C.wav","310","R",NA,"",NA,"None","bi",2,"f008","1C","auditory"
"383","3B.wav","311","R",NA,"",0.100266325,"3","bi",2,"f008","1C","auditory"
"384","4B.wav","312","R",NA,"",NA,"None","bi",2,"f008","1C","auditory"
"385","4A.wav","337","R",NA,"",NA,"None","bi",2,"f008","1C","auditory"
"386","3B.wav","338","R",NA,"",0.233715351,"3","bi",2,"f008","1C","auditory"
"387","1C.wav","339","R",NA,"",NA,"None","bi",2,"f008","1C","auditory"
"388","3A.wav","340","R",NA,"",NA,"None","bi",2,"f008","1C","auditory"
"389","2C.wav","341","R",NA,"",NA,"None","bi",2,"f008","1C","auditory"
"390","4B.wav","342","R",NA,"",0.183787131,"3","bi",2,"f008","1C","auditory"
"391","3A.wav","343","R",NA,"",NA,"None","bi",2,"f008","1C","auditory"
"392","2A.wav","344","R",NA,"",0.158881474,"3","bi",2,"f008","1C","auditory"
"393","1B.wav","345","R",NA,"",NA,"None","bi",2,"f008","1C","auditory"
"394","4A.wav","346","R",NA,"",0.433668873,"3","bi",2,"f008","1C","auditory"
"395","2A.wav","347","R",NA,"",NA,"None","bi",2,"f008","1C","auditory"
"396","2B.wav","348","R",NA,"",NA,"None","bi",2,"f008","1C","auditory"
"397","3C.wav","349","R",NA,"",0.11688356,"3","bi",2,"f008","1C","auditory"
"398","3C.wav","350","R",NA,"",NA,"None","bi",2,"f008","1C","auditory"
"399","2A.wav","351","R",NA,"",0.317019126,"3","bi",2,"f008","1C","auditory"
"400","4B.wav","352","R",NA,"",0.342003859,"3","bi",2,"f008","1C","auditory"
"401","4C.wav","353","R",NA,"",NA,"None","bi",2,"f008","1C","auditory"
"402","2C.wav","354","R",NA,"",NA,"None","bi",2,"f008","1C","auditory"
"403","2B.wav","355","R",NA,"",NA,"None","bi",2,"f008","1C","auditory"
"404","1A.wav","356","R",NA,"",0.225409863,"3","bi",2,"f008","1C","auditory"
"405","2C.wav","357","R",NA,"",NA,"None","bi",2,"f008","1C","auditory"
"406","4C.wav","358","R",NA,"",NA,"None","bi",2,"f008","1C","auditory"
"407","2B.wav","359","R",NA,"",NA,"None","bi",2,"f008","1C","auditory"
"408","3B.wav","360","R",NA,"",0.115067383,"3","bi",2,"f008","1C","auditory"
"409","2A.wav","313","R",NA,"",NA,"None","bi",2,"f008","1C","auditory"
"410","3A.wav","314","R",NA,"",NA,"None","bi",2,"f008","1C","auditory"
"411","4A.wav","315","R",NA,"",NA,"None","bi",2,"f008","1C","auditory"
"412","1B.wav","316","R",NA,"",NA,"None","bi",2,"f008","1C","auditory"
"413","2B.wav","317","R",NA,"",NA,"None","bi",2,"f008","1C","auditory"
"414","1C.wav","318","R",NA,"",0.100218539,"3","bi",2,"f008","1C","auditory"
"415","1C.wav","319","R",NA,"",NA,"None","bi",2,"f008","1C","auditory"
"416","1B.wav","320","R",NA,"",0.02525979,"3","bi",2,"f008","1C","auditory"
"417","2C.wav","321","R",NA,"",NA,"None","bi",2,"f008","1C","auditory"
"418","4A.wav","322","R",NA,"",NA,"None","bi",2,"f008","1C","auditory"
"419","4B.wav","323","R",NA,"",0.181769283,"3","bi",2,"f008","1C","auditory"
"420","3C.wav","324","R",NA,"",NA,"None","bi",2,"f008","1C","auditory"
"421","3B.wav","325","R",NA,"",0.308686047,"3","bi",2,"f008","1C","auditory"
"422","4C.wav","326","R",NA,"",NA,"None","bi",2,"f008","1C","auditory"
"423","3C.wav","327","R",NA,"",NA,"None","bi",2,"f008","1C","auditory"
"424","4C.wav","328","R",NA,"",0.058589264,"3","bi",2,"f008","1C","auditory"
"425","2B.wav","329","R",NA,"",NA,"None","bi",2,"f008","1C","auditory"
"426","1A.wav","330","R",NA,"",0.300325091,"3","bi",2,"f008","1C","auditory"
"427","1A.wav","331","R",NA,"",NA,"None","bi",2,"f008","1C","auditory"
"428","2C.wav","332","R",NA,"",0.333906583,"3","bi",2,"f008","1C","auditory"
"429","2A.wav","333","R",NA,"",NA,"None","bi",2,"f008","1C","auditory"
"430","3A.wav","334","R",NA,"",NA,"None","bi",2,"f008","1C","auditory"
"431","3B.wav","335","R",NA,"",0.233536436,"3","bi",2,"f008","1C","auditory"
"432","4B.wav","336","R",NA,"",NA,"None","bi",2,"f008","1C","auditory"
"433","4B.wav","361","R",NA,"",NA,"None","bi",2,"f008","1C","auditory"
"434","4A.wav","362","R",NA,"",0.417018643,"3","bi",2,"f008","1C","auditory"
"435","2B.wav","363","R",NA,"",NA,"None","bi",2,"f008","1C","auditory"
"436","1A.wav","364","R",NA,"",0.182500021,"3","bi",2,"f008","1C","auditory"
"437","4C.wav","365","R",NA,"",NA,"None","bi",2,"f008","1C","auditory"
"438","2A.wav","366","R",NA,"",NA,"None","bi",2,"f008","1C","auditory"
"439","3C.wav","367","R",NA,"",NA,"None","bi",2,"f008","1C","auditory"
"440","1B.wav","368","R",NA,"",0.333921943,"3","bi",2,"f008","1C","auditory"
"441","1B.wav","369","R",NA,"",NA,"None","bi",2,"f008","1C","auditory"
"442","2C.wav","370","R",NA,"",0.333999597,"3","bi",2,"f008","1C","auditory"
"443","2A.wav","371","R",NA,"",NA,"None","bi",2,"f008","1C","auditory"
"444","4B.wav","372","R",NA,"",NA,"None","bi",2,"f008","1C","auditory"
"445","1C.wav","373","R",NA,"",NA,"None","bi",2,"f008","1C","auditory"
"446","2B.wav","374","R",NA,"",0.1410636,"3","bi",2,"f008","1C","auditory"
"447","1C.wav","375","R",NA,"",NA,"None","bi",2,"f008","1C","auditory"
"448","4A.wav","376","R",NA,"",NA,"None","bi",2,"f008","1C","auditory"
"449","1A.wav","377","R",NA,"",0.267086924,"3","bi",2,"f008","1C","auditory"
"450","3A.wav","378","R",NA,"",NA,"None","bi",2,"f008","1C","auditory"
"451","1B.wav","379","R",NA,"",0.242001498,"3","bi",2,"f008","1C","auditory"
"452","1A.wav","380","R",NA,"",NA,"None","bi",2,"f008","1C","auditory"
"453","2C.wav","381","R",NA,"",NA,"None","bi",2,"f008","1C","auditory"
"454","3B.wav","382","R",NA,"",0.3753632,"3","bi",2,"f008","1C","auditory"
"455","4C.wav","383","R",NA,"",NA,"None","bi",2,"f008","1C","auditory"
"456","1C.wav","384","R",NA,"",NA,"None","bi",2,"f008","1C","auditory"
"457","silence.wav","0","B",NA,"",0.192039713,"3","bi",2,"f008","1C","auditory"
"458","silence.wav","0","B",NA,"",NA,"None","bi",2,"f008","1C","auditory"
"459","silence.wav","0","B",NA,"",NA,"None","bi",2,"f008","1C","auditory"
"460","silence.wav","0","B",NA,"",NA,"None","bi",2,"f008","1C","auditory"
"461","silence.wav","0","B",NA,"",NA,"None","bi",2,"f008","1C","auditory"
"462","silence.wav","0","B",NA,"",NA,"None","bi",2,"f008","1C","auditory"
"463","silence.wav","0","B",NA,"",NA,"None","bi",2,"f008","1C","auditory"
"464","silence.wav","0","B",NA,"",NA,"None","bi",2,"f008","1C","auditory"
"465","silence.wav","0","B",NA,"",NA,"None","bi",2,"f008","1C","auditory"
"466","silence.wav","0","B",NA,"",NA,"None","bi",2,"f008","1C","auditory"
"467","silence.wav","0","B",NA,"",NA,"None","bi",2,"f008","1C","auditory"
"468","silence.wav","0","B",NA,"",NA,"None","bi",2,"f008","1C","auditory"
"469","silence.wav","0","B",NA,"",NA,"None","bi",2,"f008","1C","auditory"
"470","silence.wav","0","B",NA,"",NA,"None","bi",2,"f008","1C","auditory"
"471","silence.wav","0","B",NA,"",NA,"None","bi",2,"f008","1C","auditory"
"472","silence.wav","0","B",NA,"",NA,"None","bi",2,"f008","1C","auditory"
"473","silence.wav","0","B",NA,"",NA,"None","bi",2,"f008","1C","auditory"
"474","silence.wav","0","B",NA,"",NA,"None","bi",2,"f008","1C","auditory"
"475","silence.wav","0","B",NA,"",NA,"None","bi",2,"f008","1C","auditory"
"476","silence.wav","0","B",NA,"",NA,"None","bi",2,"f008","1C","auditory"
"477","silence.wav","0","B",NA,"",NA,"None","bi",2,"f008","1C","auditory"
"478","silence.wav","0","B",NA,"",NA,"None","bi",2,"f008","1C","auditory"
"479","silence.wav","0","B",NA,"",NA,"None","bi",2,"f008","1C","auditory"
"480","silence.wav","0","B",NA,"",NA,"None","bi",2,"f008","1C","auditory"
"481","2C.wav","385","R",NA,"",NA,"None","bi",2,"f008","1C","auditory"
"482","1B.wav","386","R",NA,"",NA,"None","bi",2,"f008","1C","auditory"
"483","3C.wav","387","R",NA,"",NA,"None","bi",2,"f008","1C","auditory"
"484","2B.wav","388","R",NA,"",NA,"None","bi",2,"f008","1C","auditory"
"485","3A.wav","389","R",NA,"",NA,"None","bi",2,"f008","1C","auditory"
"486","2C.wav","390","R",NA,"",0.275353159,"3","bi",2,"f008","1C","auditory"
"487","3B.wav","391","R",NA,"",NA,"None","bi",2,"f008","1C","auditory"
"488","3C.wav","392","R",NA,"",NA,"None","bi",2,"f008","1C","auditory"
"489","2A.wav","393","R",NA,"",NA,"None","bi",2,"f008","1C","auditory"
"490","3B.wav","394","R",NA,"",NA,"None","bi",2,"f008","1C","auditory"
"491","4A.wav","395","R",NA,"",NA,"None","bi",2,"f008","1C","auditory"
"492","3A.wav","396","R",NA,"",NA,"None","bi",2,"f008","1C","auditory"
"493","2B.wav","397","R",NA,"",NA,"None","bi",2,"f008","1C","auditory"
"494","4A.wav","398","R",NA,"",NA,"None","bi",2,"f008","1C","auditory"
"495","3C.wav","399","R",NA,"",0.017768381,"3","bi",2,"f008","1C","auditory"
"496","1C.wav","400","R",NA,"",NA,"None","bi",2,"f008","1C","auditory"
"497","4C.wav","401","R",NA,"",0.27529627,"3","bi",2,"f008","1C","auditory"
"498","4B.wav","402","R",NA,"",NA,"None","bi",2,"f008","1C","auditory"
"499","3B.wav","403","R",NA,"",NA,"None","bi",2,"f008","1C","auditory"
"500","4B.wav","404","R",NA,"",NA,"None","bi",2,"f008","1C","auditory"
"501","2A.wav","405","R",NA,"",NA,"None","bi",2,"f008","1C","auditory"
"502","3A.wav","406","R",NA,"",NA,"None","bi",2,"f008","1C","auditory"
"503","1A.wav","407","R",NA,"",0.083639419,"3","bi",2,"f008","1C","auditory"
"504","4C.wav","408","R",NA,"",NA,"None","bi",2,"f008","1C","auditory"
"505","1A.wav","409","R",NA,"",NA,"None","bi",2,"f008","1C","auditory"
"506","4B.wav","410","R",NA,"",0.183657424,"3","bi",2,"f008","1C","auditory"
"507","1A.wav","411","R",NA,"",NA,"None","bi",2,"f008","1C","auditory"
"508","4A.wav","412","R",NA,"",0.100266325,"3","bi",2,"f008","1C","auditory"
"509","2A.wav","413","R",NA,"",NA,"None","bi",2,"f008","1C","auditory"
"510","4A.wav","414","R",NA,"",NA,"None","bi",2,"f008","1C","auditory"
"511","1B.wav","415","R",NA,"",NA,"None","bi",2,"f008","1C","auditory"
"512","2B.wav","416","R",NA,"",0.352491035,"3","bi",2,"f008","1C","auditory"
"513","1C.wav","417","R",NA,"",NA,"None","bi",2,"f008","1C","auditory"
"514","1C.wav","418","R",NA,"",NA,"None","bi",2,"f008","1C","auditory"
"515","4B.wav","419","R",NA,"",0.300368042,"3","bi",2,"f008","1C","auditory"
"516","2A.wav","420","R",NA,"",NA,"None","bi",2,"f008","1C","auditory"
"517","3B.wav","421","R",NA,"",NA,"None","bi",2,"f008","1C","auditory"
"518","1A.wav","422","R",NA,"",NA,"None","bi",2,"f008","1C","auditory"
"519","2B.wav","423","R",NA,"",NA,"None","bi",2,"f008","1C","auditory"
"520","3C.wav","424","R",NA,"",0.275267257,"3","bi",2,"f008","1C","auditory"
"521","4C.wav","425","R",NA,"",0.258696955,"3","bi",2,"f008","1C","auditory"
"522","3A.wav","426","R",NA,"",NA,"None","bi",2,"f008","1C","auditory"
"523","2C.wav","427","R",NA,"",0.227343515,"3","bi",2,"f008","1C","auditory"
"524","1B.wav","428","R",NA,"",NA,"None","bi",2,"f008","1C","auditory"
"525","4C.wav","429","R",NA,"",NA,"None","bi",2,"f008","1C","auditory"
"526","2C.wav","430","R",NA,"",NA,"None","bi",2,"f008","1C","auditory"
"527","1B.wav","431","R",NA,"",NA,"None","bi",2,"f008","1C","auditory"
"528","1C.wav","432","R",NA,"",NA,"None","bi",2,"f008","1C","auditory"
"529","3C.wav","433","R",NA,"",0.075300366,"3","bi",2,"f008","1C","auditory"
"530","3B.wav","434","R",NA,"",0.225286983,"3","bi",2,"f008","1C","auditory"
"531","2A.wav","435","R",NA,"",NA,"None","bi",2,"f008","1C","auditory"
"532","3B.wav","436","R",NA,"",0.049519758,"3","bi",2,"f008","1C","auditory"
"533","1B.wav","437","R",NA,"",NA,"None","bi",2,"f008","1C","auditory"
"534","2B.wav","438","R",NA,"",NA,"None","bi",2,"f008","1C","auditory"
"535","3B.wav","439","R",NA,"",0.210770369,"3","bi",2,"f008","1C","auditory"
"536","4A.wav","440","R",NA,"",NA,"None","bi",2,"f008","1C","auditory"
"537","2C.wav","441","R",NA,"",NA,"None","bi",2,"f008","1C","auditory"
"538","3A.wav","442","R",NA,"",NA,"None","bi",2,"f008","1C","auditory"
"539","1C.wav","443","R",NA,"",0.025304732,"3","bi",2,"f008","1C","auditory"
"540","3C.wav","444","R",NA,"",0.342075254,"3","bi",2,"f008","1C","auditory"
"541","2B.wav","445","R",NA,"",0.208578157,"3","bi",2,"f008","1C","auditory"
"542","2C.wav","446","R",NA,"",0.225312014,"3","bi",2,"f008","1C","auditory"
"543","3A.wav","447","R",NA,"",NA,"None","bi",2,"f008","1C","auditory"
"544","2A.wav","448","R",NA,"",0.282527128,"3","bi",2,"f008","1C","auditory"
"545","3A.wav","449","R",NA,"",0.408763785,"3","bi",2,"f008","1C","auditory"
"546","1C.wav","450","R",NA,"",NA,"None","bi",2,"f008","1C","auditory"
"547","4C.wav","451","R",NA,"",NA,"None","bi",2,"f008","1C","auditory"
"548","1B.wav","452","R",NA,"",0.07417994,"3","bi",2,"f008","1C","auditory"
"549","1A.wav","453","R",NA,"",0.442100086,"3","bi",2,"f008","1C","auditory"
"550","3C.wav","454","R",NA,"",NA,"None","bi",2,"f008","1C","auditory"
"551","4B.wav","455","R",NA,"",NA,"None","bi",2,"f008","1C","auditory"
"552","1A.wav","456","R",NA,"",0.327290409,"3","bi",2,"f008","1C","auditory"
"553","2A.wav","457","R",NA,"",NA,"None","bi",2,"f008","1C","auditory"
"554","1B.wav","458","R",NA,"",NA,"None","bi",2,"f008","1C","auditory"
"555","4C.wav","459","R",NA,"",NA,"None","bi",2,"f008","1C","auditory"
"556","1B.wav","460","R",NA,"",NA,"None","bi",2,"f008","1C","auditory"
"557","3B.wav","461","R",NA,"",NA,"None","bi",2,"f008","1C","auditory"
"558","4B.wav","462","R",NA,"",NA,"None","bi",2,"f008","1C","auditory"
"559","2B.wav","463","R",NA,"",NA,"None","bi",2,"f008","1C","auditory"
"560","4A.wav","464","R",NA,"",0.167791691,"3","bi",2,"f008","1C","auditory"
"561","4B.wav","465","R",NA,"",NA,"None","bi",2,"f008","1C","auditory"
"562","2A.wav","466","R",NA,"",NA,"None","bi",2,"f008","1C","auditory"
"563","4C.wav","467","R",NA,"",NA,"None","bi",2,"f008","1C","auditory"
"564","4A.wav","468","R",NA,"",NA,"None","bi",2,"f008","1C","auditory"
"565","1A.wav","469","R",NA,"",0.177490104,"3","bi",2,"f008","1C","auditory"
"566","4C.wav","470","R",NA,"",0.202453787,"3","bi",2,"f008","1C","auditory"
"567","3C.wav","471","R",NA,"",NA,"None","bi",2,"f008","1C","auditory"
"568","1A.wav","472","R",NA,"",0.258669648,"3","bi",2,"f008","1C","auditory"
"569","4A.wav","473","R",NA,"",NA,"None","bi",2,"f008","1C","auditory"
"570","4B.wav","474","R",NA,"",NA,"None","bi",2,"f008","1C","auditory"
"571","2C.wav","475","R",NA,"",0.441969242,"3","bi",2,"f008","1C","auditory"
"572","1C.wav","476","R",NA,"",NA,"None","bi",2,"f008","1C","auditory"
"573","2B.wav","477","R",NA,"",NA,"None","bi",2,"f008","1C","auditory"
"574","2C.wav","478","R",NA,"",0.124268018,"3","bi",2,"f008","1C","auditory"
"575","1C.wav","479","R",NA,"",NA,"None","bi",2,"f008","1C","auditory"
"576","3A.wav","480","R",NA,"",0.108632969,"3","bi",2,"f008","1C","auditory"
"577","silence.wav","0","B",NA,"",NA,"None","bi",2,"f008","1C","auditory"
"578","silence.wav","0","B",NA,"",NA,"None","bi",2,"f008","1C","auditory"
"579","silence.wav","0","B",NA,"",NA,"None","bi",2,"f008","1C","auditory"
"580","silence.wav","0","B",NA,"",NA,"None","bi",2,"f008","1C","auditory"
"581","silence.wav","0","B",NA,"",NA,"None","bi",2,"f008","1C","auditory"
"582","silence.wav","0","B",NA,"",NA,"None","bi",2,"f008","1C","auditory"
"583","silence.wav","0","B",NA,"",NA,"None","bi",2,"f008","1C","auditory"
"584","silence.wav","0","B",NA,"",NA,"None","bi",2,"f008","1C","auditory"
"585","silence.wav","0","B",NA,"",NA,"None","bi",2,"f008","1C","auditory"
"586","silence.wav","0","B",NA,"",NA,"None","bi",2,"f008","1C","auditory"
"587","silence.wav","0","B",NA,"",NA,"None","bi",2,"f008","1C","auditory"
"588","silence.wav","0","B",NA,"",NA,"None","bi",2,"f008","1C","auditory"
"589","silence.wav","0","B",NA,"",NA,"None","bi",2,"f008","1C","auditory"
"590","silence.wav","0","B",NA,"",NA,"None","bi",2,"f008","1C","auditory"
"591","silence.wav","0","B",NA,"",NA,"None","bi",2,"f008","1C","auditory"
"592","silence.wav","0","B",NA,"",NA,"None","bi",2,"f008","1C","auditory"
"593","silence.wav","0","B",NA,"",NA,"None","bi",2,"f008","1C","auditory"
"594","silence.wav","0","B",NA,"",NA,"None","bi",2,"f008","1C","auditory"
"595","silence.wav","0","B",NA,"",NA,"None","bi",2,"f008","1C","auditory"
"596","silence.wav","0","B",NA,"",NA,"None","bi",2,"f008","1C","auditory"
"597","silence.wav","0","B",NA,"",NA,"None","bi",2,"f008","1C","auditory"
"598","silence.wav","0","B",NA,"",NA,"None","bi",2,"f008","1C","auditory"
"599","silence.wav","0","B",NA,"",NA,"None","bi",2,"f008","1C","auditory"
"600","silence.wav","0","B",NA,"",NA,"None","bi",2,"f008","1C","auditory"
"601","pi.wav","289","S",NA,"None",NA,"","bi",2,"f008","1C","auditory"
"602","tu.wav","290","S",NA,"None",NA,"","bi",2,"f008","1C","auditory"
"603","bi.wav","291","S",0.383668973,"3",NA,"","bi",2,"f008","1C","auditory"
"604","di.wav","292","S",NA,"None",NA,"","bi",2,"f008","1C","auditory"
"605","ba.wav","293","S",NA,"None",NA,"","bi",2,"f008","1C","auditory"
"606","pu.wav","294","S",NA,"None",NA,"","bi",2,"f008","1C","auditory"
"607","ta.wav","295","S",NA,"None",NA,"","bi",2,"f008","1C","auditory"
"608","ti.wav","296","S",NA,"None",NA,"","bi",2,"f008","1C","auditory"
"609","du.wav","297","S",NA,"None",NA,"","bi",2,"f008","1C","auditory"
"610","pi.wav","298","S",NA,"None",NA,"","bi",2,"f008","1C","auditory"
"611","tu.wav","299","S",NA,"None",NA,"","bi",2,"f008","1C","auditory"
"612","bi.wav","300","S",0.28364727,"3",NA,"","bi",2,"f008","1C","auditory"
"613","bu.wav","301","S",NA,"None",NA,"","bi",2,"f008","1C","auditory"
"614","pa.wav","302","S",NA,"None",NA,"","bi",2,"f008","1C","auditory"
"615","da.wav","303","S",NA,"None",NA,"","bi",2,"f008","1C","auditory"
"616","di.wav","304","S",NA,"None",NA,"","bi",2,"f008","1C","auditory"
"617","ba.wav","305","S",NA,"None",NA,"","bi",2,"f008","1C","auditory"
"618","pu.wav","306","S",NA,"None",NA,"","bi",2,"f008","1C","auditory"
"619","ta.wav","307","S",NA,"None",NA,"","bi",2,"f008","1C","auditory"
"620","ti.wav","308","S",NA,"None",NA,"","bi",2,"f008","1C","auditory"
"621","du.wav","309","S",NA,"None",NA,"","bi",2,"f008","1C","auditory"
"622","pi.wav","310","S",NA,"None",NA,"","bi",2,"f008","1C","auditory"
"623","tu.wav","311","S",NA,"None",NA,"","bi",2,"f008","1C","auditory"
"624","bi.wav","312","S",0.308779344,"3",NA,"","bi",2,"f008","1C","auditory"
"625","bu.wav","313","S",NA,"None",NA,"","bi",2,"f008","1C","auditory"
"626","pa.wav","314","S",NA,"None",NA,"","bi",2,"f008","1C","auditory"
"627","da.wav","315","S",NA,"None",NA,"","bi",2,"f008","1C","auditory"
"628","di.wav","316","S",NA,"None",NA,"","bi",2,"f008","1C","auditory"
"629","ba.wav","317","S",NA,"None",NA,"","bi",2,"f008","1C","auditory"
"630","pu.wav","318","S",NA,"None",NA,"","bi",2,"f008","1C","auditory"
"631","bu.wav","319","S",NA,"None",NA,"","bi",2,"f008","1C","auditory"
"632","pa.wav","320","S",NA,"None",NA,"","bi",2,"f008","1C","auditory"
"633","da.wav","321","S",NA,"None",NA,"","bi",2,"f008","1C","auditory"
"634","ta.wav","322","S",NA,"None",NA,"","bi",2,"f008","1C","auditory"
"635","ti.wav","323","S",NA,"None",NA,"","bi",2,"f008","1C","auditory"
"636","du.wav","324","S",NA,"None",NA,"","bi",2,"f008","1C","auditory"
"637","pi.wav","325","S",NA,"None",NA,"","bi",2,"f008","1C","auditory"
"638","tu.wav","326","S",NA,"None",NA,"","bi",2,"f008","1C","auditory"
"639","bi.wav","327","S",0.342107965,"3",NA,"","bi",2,"f008","1C","auditory"
"640","ta.wav","328","S",NA,"None",NA,"","bi",2,"f008","1C","auditory"
"641","ti.wav","329","S",NA,"None",NA,"","bi",2,"f008","1C","auditory"
"642","du.wav","330","S",NA,"None",NA,"","bi",2,"f008","1C","auditory"
"643","pi.wav","331","S",NA,"None",NA,"","bi",2,"f008","1C","auditory"
"644","tu.wav","332","S",NA,"None",NA,"","bi",2,"f008","1C","auditory"
"645","bi.wav","333","S",NA,"None",NA,"","bi",2,"f008","1C","auditory"
"646","bu.wav","334","S",NA,"None",NA,"","bi",2,"f008","1C","auditory"
"647","pa.wav","335","S",NA,"None",NA,"","bi",2,"f008","1C","auditory"
"648","da.wav","336","S",NA,"None",NA,"","bi",2,"f008","1C","auditory"
"649","di.wav","337","S",NA,"None",NA,"","bi",2,"f008","1C","auditory"
"650","ba.wav","338","S",NA,"None",NA,"","bi",2,"f008","1C","auditory"
"651","pu.wav","339","S",NA,"None",NA,"","bi",2,"f008","1C","auditory"
"652","ta.wav","340","S",NA,"None",NA,"","bi",2,"f008","1C","auditory"
"653","ti.wav","341","S",NA,"None",NA,"","bi",2,"f008","1C","auditory"
"654","du.wav","342","S",NA,"None",NA,"","bi",2,"f008","1C","auditory"
"655","pi.wav","343","S",NA,"None",NA,"","bi",2,"f008","1C","auditory"
"656","tu.wav","344","S",NA,"None",NA,"","bi",2,"f008","1C","auditory"
"657","bi.wav","345","S",0.267018373,"3",NA,"","bi",2,"f008","1C","auditory"
"658","bu.wav","346","S",NA,"None",NA,"","bi",2,"f008","1C","auditory"
"659","pa.wav","347","S",NA,"None",NA,"","bi",2,"f008","1C","auditory"
"660","da.wav","348","S",NA,"None",NA,"","bi",2,"f008","1C","auditory"
"661","di.wav","349","S",NA,"None",NA,"","bi",2,"f008","1C","auditory"
"662","ba.wav","350","S",NA,"None",NA,"","bi",2,"f008","1C","auditory"
"663","pu.wav","351","S",NA,"None",NA,"","bi",2,"f008","1C","auditory"
"664","bu.wav","352","S",NA,"None",NA,"","bi",2,"f008","1C","auditory"
"665","pa.wav","353","S",NA,"None",NA,"","bi",2,"f008","1C","auditory"
"666","da.wav","354","S",NA,"None",NA,"","bi",2,"f008","1C","auditory"
"667","pi.wav","355","S",NA,"None",NA,"","bi",2,"f008","1C","auditory"
"668","tu.wav","356","S",NA,"None",NA,"","bi",2,"f008","1C","auditory"
"669","bi.wav","357","S",NA,"None",NA,"","bi",2,"f008","1C","auditory"
"670","ta.wav","358","S",NA,"None",NA,"","bi",2,"f008","1C","auditory"
"671","ti.wav","359","S",0.175446087,"3",NA,"","bi",2,"f008","1C","auditory"
"672","du.wav","360","S",NA,"None",NA,"","bi",2,"f008","1C","auditory"
"673","di.wav","361","S",NA,"None",NA,"","bi",2,"f008","1C","auditory"
"674","ba.wav","362","S",NA,"None",NA,"","bi",2,"f008","1C","auditory"
"675","pu.wav","363","S",NA,"None",NA,"","bi",2,"f008","1C","auditory"
"676","pi.wav","364","S",NA,"None",NA,"","bi",2,"f008","1C","auditory"
"677","tu.wav","365","S",NA,"None",NA,"","bi",2,"f008","1C","auditory"
"678","bi.wav","366","S",NA,"None",NA,"","bi",2,"f008","1C","auditory"
"679","bu.wav","367","S",0.127256105,"3",NA,"","bi",2,"f008","1C","auditory"
"680","pa.wav","368","S",NA,"None",NA,"","bi",2,"f008","1C","auditory"
"681","da.wav","369","S",NA,"None",NA,"","bi",2,"f008","1C","auditory"
"682","ta.wav","370","S",NA,"None",NA,"","bi",2,"f008","1C","auditory"
"683","ti.wav","371","S",NA,"None",NA,"","bi",2,"f008","1C","auditory"
"684","du.wav","372","S",NA,"None",NA,"","bi",2,"f008","1C","auditory"
"685","di.wav","373","S",NA,"None",NA,"","bi",2,"f008","1C","auditory"
"686","ba.wav","374","S",NA,"None",NA,"","bi",2,"f008","1C","auditory"
"687","pu.wav","375","S",NA,"None",NA,"","bi",2,"f008","1C","auditory"
"688","bu.wav","376","S",NA,"None",NA,"","bi",2,"f008","1C","auditory"
"689","pa.wav","377","S",NA,"None",NA,"","bi",2,"f008","1C","auditory"
"690","da.wav","378","S",NA,"None",NA,"","bi",2,"f008","1C","auditory"
"691","ta.wav","382","S",NA,"None",NA,"","bi",2,"f008","1C","auditory"
"692","ti.wav","383","S",NA,"None",NA,"","bi",2,"f008","1C","auditory"
"693","du.wav","384","S",NA,"None",NA,"","bi",2,"f008","1C","auditory"
"694","di.wav","388","S",NA,"None",NA,"","bi",2,"f008","1C","auditory"
"695","ba.wav","389","S",NA,"None",NA,"","bi",2,"f008","1C","auditory"
"696","pu.wav","390","S",NA,"None",NA,"","bi",2,"f008","1C","auditory"
"697","silence.wav","0","B",NA,"None",NA,"","bi",2,"f008","1C","auditory"
"698","silence.wav","0","B",NA,"None",NA,"","bi",2,"f008","1C","auditory"
"699","silence.wav","0","B",NA,"None",NA,"","bi",2,"f008","1C","auditory"
"700","silence.wav","0","B",NA,"None",NA,"","bi",2,"f008","1C","auditory"
"701","silence.wav","0","B",NA,"None",NA,"","bi",2,"f008","1C","auditory"
"702","silence.wav","0","B",NA,"None",NA,"","bi",2,"f008","1C","auditory"
"703","silence.wav","0","B",NA,"None",NA,"","bi",2,"f008","1C","auditory"
"704","silence.wav","0","B",NA,"None",NA,"","bi",2,"f008","1C","auditory"
"705","silence.wav","0","B",NA,"None",NA,"","bi",2,"f008","1C","auditory"
"706","silence.wav","0","B",NA,"None",NA,"","bi",2,"f008","1C","auditory"
"707","silence.wav","0","B",NA,"None",NA,"","bi",2,"f008","1C","auditory"
"708","silence.wav","0","B",NA,"None",NA,"","bi",2,"f008","1C","auditory"
"709","silence.wav","0","B",NA,"None",NA,"","bi",2,"f008","1C","auditory"
"710","silence.wav","0","B",NA,"None",NA,"","bi",2,"f008","1C","auditory"
"711","silence.wav","0","B",NA,"None",NA,"","bi",2,"f008","1C","auditory"
"712","silence.wav","0","B",NA,"None",NA,"","bi",2,"f008","1C","auditory"
"713","silence.wav","0","B",NA,"None",NA,"","bi",2,"f008","1C","auditory"
"714","silence.wav","0","B",NA,"None",NA,"","bi",2,"f008","1C","auditory"
"715","silence.wav","0","B",NA,"None",NA,"","bi",2,"f008","1C","auditory"
"716","silence.wav","0","B",NA,"None",NA,"","bi",2,"f008","1C","auditory"
"717","silence.wav","0","B",NA,"None",NA,"","bi",2,"f008","1C","auditory"
"718","silence.wav","0","B",NA,"None",NA,"","bi",2,"f008","1C","auditory"
"719","silence.wav","0","B",NA,"None",NA,"","bi",2,"f008","1C","auditory"
"720","silence.wav","0","B",NA,"None",NA,"","bi",2,"f008","1C","auditory"
"721","silence.wav","0","B",NA,"None",NA,"","bi",2,"f008","1C","auditory"
"722","silence.wav","0","B",NA,"None",NA,"","bi",2,"f008","1C","auditory"
"723","silence.wav","0","B",NA,"None",NA,"","bi",2,"f008","1C","auditory"
"724","silence.wav","0","B",NA,"None",NA,"","bi",2,"f008","1C","auditory"
"725","silence.wav","0","B",NA,"None",NA,"","bi",2,"f008","1C","auditory"
"726","","","",NA,"",NA,"","bi",2,"f008","1C","auditory"
"727","corrAns","soundFile6","soundFile5",NA,"",NA,"","bi",2,"f008","1C","auditory"
"728","3","da.wav","ba.wav",NA,"",NA,"","bi",2,"f008","1C","auditory"
"729","4","du.wav","ti.wav",NA,"",NA,"","",NA,"","",""
"730","3","bi.wav","pa.wav",NA,"",NA,"","",NA,"","",""
"731","3","pu.wav","ti.wav",NA,"",NA,"","",NA,"","",""
"732","3","da.wav","ba.wav",NA,"",NA,"","",NA,"","",""
"733","4","bi.wav","tu.wav",NA,"",NA,"","",NA,"","",""
"734","3","bi.wav","pa.wav",NA,"",NA,"","",NA,"","",""
"735","3","du.wav","tu.wav",NA,"",NA,"","",NA,"","",""
"736","3","pu.wav","ti.wav",NA,"",NA,"","",NA,"","",""
"737","3","da.wav","ba.wav",NA,"",NA,"","",NA,"","",""
"738","3","pu.wav","ti.wav",NA,"",NA,"","",NA,"","",""
"739","3","du.wav","tu.wav",NA,"",NA,"","",NA,"","",""
"740","4","bi.wav","tu.wav",NA,"",NA,"","",NA,"","",""
"741","4","du.wav","ti.wav",NA,"",NA,"","",NA,"","",""
"742","4","da.wav","pa.wav",NA,"",NA,"","",NA,"","",""
"743","3","du.wav","tu.wav",NA,"",NA,"","",NA,"","",""
